NS_position_y,warning.started,final.started,exp_trials_loop.ran,__participant,training_intro.stopped,NS_button_example.numClicks,intro_continue.keys,S_button_example.timesOff,study_id,NS_button_practice.timesOn,pre_quiz_key.rt,consent.started,exp_trials_loop.thisN,S_button_practice.timesOff,NS_button.timesOn,unique_item_no,key_resp_end_prac.rt,button_pos_warning.stopped,session,__session,pre_quiz.stopped,prac_feedback_loop.thisN,warning.stopped,answer,NS_button_example.timesOff,prac_feedback_loop.thisIndex,frameRate,ready_to_go.stopped,AC_button.numClicks,age_textbox.text,training_intro_key.rt,pre_quiz_key.keys,intro.stopped,S_button_practice.numClicks,S_button_example.numClicks,AC_button.timesOn,ready_spacebar.rt,pre_prac_key.keys,ready_spacebar.keys,__datetime,feedback,instruction,pre_practice.started,NS_button.timesOff,practice_trial_feedback.started,trials.started,participant,gender_slider.response,demographics.started,intro.started,trials.stopped,prac_feedback_loop.ran,NS_position_x,S_button.numClicks,consent.stopped,S_position_y,AC_button.timesOff,instruction_colour,S_position_x,psychopyVersion,OS,expName,pre_quiz.started,ready_to_go.started,exp_trials_loop.thisTrialN,stim_size_y,ready_spacebar_2.rt,training_intro.started,NS_button_practice.numClicks,image,image_path,stim_size_x,pre_practice.stopped,NS_button_practice.timesOff,training_intro_key.keys,prac_feedback_loop.thisTrialN,practice_trial_feedback.stopped,S_button_example.timesOn,S_button_practice.timesOn,S_button.timesOff,date,exp_trials_loop.thisIndex,prac_feedback_loop.thisRepN,S_button.timesOn,exp_trials_loop.thisRepN,type,demographics.stopped,button_pos_warning.started,pre_prac_key.rt,NS_button_example.timesOn,__experimentName,ready_spacebar_2.keys,intro_continue.rt,NS_button.numClicks,key_resp_end_prac.keys,number,final.stopped
﻿,,,,161563,,,space,,68766fd199ac5101833eeb20,,,,,,,,,,687671e2818b7ec977627768,001,,,,,,,59.952038369329664,,,,,,3.4110000000000014,,,,,,,2025-07-15_17h15.45.840,,,,,,,67d2f0a3fc7591bc603ac592,,,0,,,,,,,,,,2024.2.4,Win32,ECG_X_EXP1_m1_JT,,,,,,,,,,,,,,,,,,,2025-07-15_17h16.30.004,,,,,,,,,,ECG_X_EXP1_m1_JT,,2.3880000000000052,,,,
﻿,31.70600000000001,,,161563,,,,,68766fd199ac5101833eeb20,,,30.660000000000004,,,,,,,687671e2818b7ec977627768,001,,,38.25600000000001,,,,59.952038369329664,,,,,,,,,,,,,2025-07-15_17h15.45.840,,,,,,,67d2f0a3fc7591bc603ac592,,,,,,,,31.70600000000001,,,,,2024.2.4,Win32,ECG_X_EXP1_m1_JT,,,,,,,,,,,,,,,,,,,2025-07-15_17h16.30.004,,,,,,,,,,ECG_X_EXP1_m1_JT,,,,,,
﻿,,,,161563,,,,,68766fd199ac5101833eeb20,,,,,,,,,,687671e2818b7ec977627768,001,,,,,,,59.952038369329664,,,31,,,,,,,,,,2025-07-15_17h15.45.840,,,,,,,67d2f0a3fc7591bc603ac592,Male,38.258,,,,,,,,,,,2024.2.4,Win32,ECG_X_EXP1_m1_JT,,,,,,,,,,,,,,,,,,,2025-07-15_17h16.30.004,,,,,,47.177000000000014,,,,ECG_X_EXP1_m1_JT,,,,,,
﻿,,,,161563,53.17300000000001,,,,68766fd199ac5101833eeb20,,,,,,,,,,687671e2818b7ec977627768,001,,,,,,,59.952038369329664,,,,0.9450000000000074,,,,,,,,,2025-07-15_17h15.45.840,,,,,,,67d2f0a3fc7591bc603ac592,,,,,,,,,,,,,2024.2.4,Win32,ECG_X_EXP1_m1_JT,,,,,,47.177000000000014,,,,,,,space,,,,,,2025-07-15_17h16.30.004,,,,,,,,,,ECG_X_EXP1_m1_JT,,,,,,
﻿,,,,161563,,,,,68766fd199ac5101833eeb20,,,,,,,,,,687671e2818b7ec977627768,001,,,,,,,59.952038369329664,,,,,,,,,,,space,,2025-07-15_17h15.45.840,,,293.245,,,,67d2f0a3fc7591bc603ac592,,,,,,,,,,,,,2024.2.4,Win32,ECG_X_EXP1_m1_JT,,,,,,,,,,,327.71999999999997,,,,,,,,2025-07-15_17h16.30.004,,,,,,,,31.43199999999996,,ECG_X_EXP1_m1_JT,,,,,,
﻿,,,,161563,,,,,68766fd199ac5101833eeb20,[4.399999999999977],,,,[],,,5.584000000000003,,687671e2818b7ec977627768,001,,0,,,,0,59.952038369329664,,,,,,,0,,,,,,2025-07-15_17h15.45.840,"This image does not show signs of ST-elevation, as the ST-segment is not elevated above 0.1 mV.",Please look at the following ECG and decide if ST-elevation is present.,,,327.734,,67d2f0a3fc7591bc603ac592,,,,,1,,,,,,,,2024.2.4,Win32,ECG_X_EXP1_m1_JT,,,,0.801425662,,,1,exp_resources/practice_feedback_trials/practice_1_noST.png,,0.5,,[4.5090000000000146],,0,340.719,,[],,2025-07-15_17h16.30.004,,0,,,,,,,,ECG_X_EXP1_m1_JT,,,,space,1,
﻿,,,,161563,,,,,68766fd199ac5101833eeb20,[],,,,[1.8950000000000387],,,2.3040000000000305,,687671e2818b7ec977627768,001,,1,,,,1,59.952038369329664,,,,,,,1,,,,,,2025-07-15_17h15.45.840,"This image does not show signs of ST-elevation, as the ST-segment is not elevated above 0.1 mV.",Please look at the following ECG and decide if ST-elevation is present.,,,340.72499999999997,,67d2f0a3fc7591bc603ac592,,,,,1,,,,,,,,2024.2.4,Win32,ECG_X_EXP1_m1_JT,,,,0.801425662,,,0,exp_resources/practice_feedback_trials/practice_2_noST.png,,0.5,,[],,1,347.88599999999997,,[1.8480000000000132],,2025-07-15_17h16.30.004,,0,,,,,,,,ECG_X_EXP1_m1_JT,,,,space,2,
﻿,,,,161563,,,,,68766fd199ac5101833eeb20,[1.4370000000000118],,,,[],,,1.7510000000000332,,687671e2818b7ec977627768,001,,2,,,,2,59.952038369329664,,,,,,,0,,,,,,2025-07-15_17h15.45.840,"This image does show signs of ST-elevation, because the ST-segment is elevated at the J-point by at least 0.1 mV.",Please look at the following ECG and decide if ST-elevation is present.,,,347.894,,67d2f0a3fc7591bc603ac592,,,,,1,,,,,,,,2024.2.4,Win32,ECG_X_EXP1_m1_JT,,,,0.801425662,,,1,exp_resources/practice_feedback_trials/practice_3_ST.png,,0.5,,[1.5009999999999764],,2,354.087,,[],,2025-07-15_17h16.30.004,,0,,,,,,,,ECG_X_EXP1_m1_JT,,,,space,3,
﻿,,,,161563,,,,,68766fd199ac5101833eeb20,[0.9839999999999804],,,,[],,,1.0830000000000268,,687671e2818b7ec977627768,001,,3,,,,3,59.952038369329664,,,,,,,0,,,,,,2025-07-15_17h15.45.840,"This image does show signs of ST-elevation, because the ST-segment is elevated at the J-point by at least 0.1 mV.",Please look at the following ECG and decide if ST-elevation is present.,,,354.091,,67d2f0a3fc7591bc603ac592,,,,,1,,,,,,,,2024.2.4,Win32,ECG_X_EXP1_m1_JT,,,,0.801425662,,,1,exp_resources/practice_feedback_trials/practice_4_ST.png,,0.5,,[1.079999999999984],,3,359.162,,[],,2025-07-15_17h16.30.004,,0,,,,,,,,ECG_X_EXP1_m1_JT,,,,space,4,
﻿,,,,161563,,,,,68766fd199ac5101833eeb20,,1.969000000000051,,,,,,,,687671e2818b7ec977627768,001,362.152,,,,,,59.952038369329664,,,,,space,,,,,,,,2025-07-15_17h15.45.840,,,,,,,67d2f0a3fc7591bc603ac592,,,,,,,,,,,,,2024.2.4,Win32,ECG_X_EXP1_m1_JT,359.162,,,,,,,,,,,,,,,,,,2025-07-15_17h16.30.004,,,,,,,,,,ECG_X_EXP1_m1_JT,,,,,,
﻿,,,,161563,,0,,[],68766fd199ac5101833eeb20,,,,,,,,,,687671e2818b7ec977627768,001,,,,,[],,59.952038369329664,371.82,,,,,,,0,,3.634999999999991,,space,2025-07-15_17h15.45.840,,,,,,,67d2f0a3fc7591bc603ac592,,,,,,,,,,,,,2024.2.4,Win32,ECG_X_EXP1_m1_JT,,362.15299999999996,,,,,,,,,,,,,,[],,,2025-07-15_17h16.30.004,,,,,,,,,[],ECG_X_EXP1_m1_JT,,,,,,
﻿,,,,161563,,,,,68766fd199ac5101833eeb20,,,,,,,,,377.086,687671e2818b7ec977627768,001,,,,,,,59.952038369329664,,,,,,,,,,,,,2025-07-15_17h15.45.840,,,,,,,67d2f0a3fc7591bc603ac592,,,,,,,,,,,,,2024.2.4,Win32,ECG_X_EXP1_m1_JT,,,,,1.225999999999999,,,,,,,,,,,,,,2025-07-15_17h16.30.004,,,,,,,371.82,,,ECG_X_EXP1_m1_JT,space,,,,,
﻿-0.425,,,1,161563,,,,,68766fd199ac5101833eeb20,,,,0,,[],60,,,687671e2818b7ec977627768,001,,,,N_ST,,,59.952038369329664,,0,,,,,,,[],,,,2025-07-15_17h15.45.840,,Please look at the following ECG and decide if ST-elevation is present.,,[],,377.108,67d2f0a3fc7591bc603ac592,,,,381.06899999999996,,-0.65,1,,-0.425,[],black,0.65,2024.2.4,Win32,ECG_X_EXP1_m1_JT,,,0,0.801425662,,,,,exp_resources/pilot_round2_stimuli/norm_vis/JT/JT_0491_i_5_NORM_NOST.png,0.5,,,,,,,,[1.4660000000000082],2025-07-15_17h16.30.004,59,,[1.4660000000000082],0,NORM_vis,,,,,ECG_X_EXP1_m1_JT,,,0,,,
﻿-0.425,,,1,161563,,,,,68766fd199ac5101833eeb20,,,,1,,[],74,,,687671e2818b7ec977627768,001,,,,ST,,,59.952038369329664,,0,,,,,,,[],,,,2025-07-15_17h15.45.840,,Please look at the following ECG and decide if ST-elevation is present.,,[],,381.07599999999996,67d2f0a3fc7591bc603ac592,,,,385.73699999999997,,-0.65,1,,-0.425,[],black,0.65,2024.2.4,Win32,ECG_X_EXP1_m1_JT,,,1,0.801425662,,,,,exp_resources/pilot_round2_stimuli/no_vis/nvis_s0051_v1_1_mi_st.png,0.5,,,,,,,,[2.1680000000000064],2025-07-15_17h16.30.004,73,,[2.1680000000000064],0,MI_no_vis,,,,,ECG_X_EXP1_m1_JT,,,0,,,
﻿-0.425,,,1,161563,,,,,68766fd199ac5101833eeb20,,,,2,,[0.8660000000000423],22,,,687671e2818b7ec977627768,001,,,,ST,,,59.952038369329664,,0,,,,,,,[],,,,2025-07-15_17h15.45.840,,Please look at the following ECG and decide if ST-elevation is present.,,[0.8660000000000423],,385.743,67d2f0a3fc7591bc603ac592,,,,389.104,,-0.65,0,,-0.425,[],black,0.65,2024.2.4,Win32,ECG_X_EXP1_m1_JT,,,2,0.801425662,,,,,exp_resources/pilot_round2_stimuli/MI_vis/JT/JT_0098_v1_5_MI_st.png,0.5,,,,,,,,[],2025-07-15_17h16.30.004,21,,[],0,MI_vis,,,,,ECG_X_EXP1_m1_JT,,,1,,,
﻿-0.45,,,1,161563,,,,,68766fd199ac5101833eeb20,,,,3,,[],126,,,687671e2818b7ec977627768,001,,,,AC,,,59.952038369329664,,0,,,,,,,[],,,,2025-07-15_17h15.45.840,,Please IGNORE the following ECG and click on the centre of the visualisation.,,[],,389.12,67d2f0a3fc7591bc603ac592,,,,393.486,,-0.65,1,,-0.45,[],red,0.65,2024.2.4,Win32,ECG_X_EXP1_m1_JT,,,3,0.801425662,,,,,exp_resources/pilot_round2_stimuli/no_vis/nvis_s0083_v4_4_mi_st.png,0.5,,,,,,,,[1.8840000000000146],2025-07-15_17h16.30.004,125,,[1.8840000000000146],0,AC,,,,,ECG_X_EXP1_m1_JT,,,0,,,
﻿-0.425,,,1,161563,,,,,68766fd199ac5101833eeb20,,,,4,,[],72,,,687671e2818b7ec977627768,001,,,,ST,,,59.952038369329664,,0,,,,,,,[],,,,2025-07-15_17h15.45.840,,Please look at the following ECG and decide if ST-elevation is present.,,[],,393.495,67d2f0a3fc7591bc603ac592,,,,397.286,,-0.65,1,,-0.425,[],black,0.65,2024.2.4,Win32,ECG_X_EXP1_m1_JT,,,4,0.801425662,,,,,exp_resources/pilot_round2_stimuli/no_vis/nvis_s0038_v4_2_mi_st.png,0.5,,,,,,,,[1.3000000000000114],2025-07-15_17h16.30.004,71,,[1.3000000000000114],0,MI_no_vis,,,,,ECG_X_EXP1_m1_JT,,,0,,,
﻿-0.425,,,1,161563,,,,,68766fd199ac5101833eeb20,,,,5,,[1.1159999999999854],30,,,687671e2818b7ec977627768,001,,,,ST,,,59.952038369329664,,0,,,,,,,[],,,,2025-07-15_17h15.45.840,,Please look at the following ECG and decide if ST-elevation is present.,,[1.1159999999999854],,397.29499999999996,67d2f0a3fc7591bc603ac592,,,,400.902,,-0.65,0,,-0.425,[],black,0.65,2024.2.4,Win32,ECG_X_EXP1_m1_JT,,,5,0.801425662,,,,,exp_resources/pilot_round2_stimuli/MI_vis/JT/JT_0558_v1_2_MI_st.png,0.5,,,,,,,,[],2025-07-15_17h16.30.004,29,,[],0,MI_vis,,,,,ECG_X_EXP1_m1_JT,,,1,,,
﻿-0.425,,,1,161563,,,,,68766fd199ac5101833eeb20,,,,6,,[0.8840000000000146],7,,,687671e2818b7ec977627768,001,,,,ST,,,59.952038369329664,,0,,,,,,,[],,,,2025-07-15_17h15.45.840,,Please look at the following ECG and decide if ST-elevation is present.,,[0.8840000000000146],,400.90799999999996,67d2f0a3fc7591bc603ac592,,,,404.288,,0.65,0,,-0.425,[],black,-0.65,2024.2.4,Win32,ECG_X_EXP1_m1_JT,,,6,0.801425662,,,,,exp_resources/pilot_round2_stimuli/MI_vis/JT/JT_0026_v4_5_MI_st.png,0.5,,,,,,,,[],2025-07-15_17h16.30.004,6,,[],0,MI_vis,,,,,ECG_X_EXP1_m1_JT,,,1,,,
﻿-0.425,,,1,161563,,,,,68766fd199ac5101833eeb20,,,,7,,[],96,,,687671e2818b7ec977627768,001,,,,N_ST,,,59.952038369329664,,0,,,,,,,[],,,,2025-07-15_17h15.45.840,,Please look at the following ECG and decide if ST-elevation is present.,,[],,404.306,67d2f0a3fc7591bc603ac592,,,,409.27,,-0.65,1,,-0.425,[],black,0.65,2024.2.4,Win32,ECG_X_EXP1_m1_JT,,,7,0.801425662,,,,,exp_resources/pilot_round2_stimuli/no_vis/nvis_s0302_ii_3_normal_nst.png,0.5,,,,,,,,[2.483000000000004],2025-07-15_17h16.30.004,95,,[2.483000000000004],0,NORM_no_vis,,,,,ECG_X_EXP1_m1_JT,,,0,,,
﻿-0.425,,,1,161563,,,,,68766fd199ac5101833eeb20,,,,8,,[],46,,,687671e2818b7ec977627768,001,,,,N_ST,,,59.952038369329664,,0,,,,,,,[],,,,2025-07-15_17h15.45.840,,Please look at the following ECG and decide if ST-elevation is present.,,[],,409.276,67d2f0a3fc7591bc603ac592,,,,413.186,,-0.65,1,,-0.425,[],black,0.65,2024.2.4,Win32,ECG_X_EXP1_m1_JT,,,8,0.801425662,,,,,exp_resources/pilot_round2_stimuli/norm_vis/JT/JT_0465_avf_4_NORM_NOST.png,0.5,,,,,,,,[1.4180000000000064],2025-07-15_17h16.30.004,45,,[1.4180000000000064],0,NORM_vis,,,,,ECG_X_EXP1_m1_JT,,,0,,,
﻿-0.425,,,1,161563,,,,,68766fd199ac5101833eeb20,,,,9,,[4.899999999999977],104,,,687671e2818b7ec977627768,001,,,,N_ST,,,59.952038369329664,,0,,,,,,,[],,,,2025-07-15_17h15.45.840,,Please look at the following ECG and decide if ST-elevation is present.,,[4.899999999999977],,413.191,67d2f0a3fc7591bc603ac592,,,,420.586,,-0.65,0,,-0.425,[],black,0.65,2024.2.4,Win32,ECG_X_EXP1_m1_JT,,,9,0.801425662,,,,,exp_resources/pilot_round2_stimuli/no_vis/nvis_s0462_v1_4_normal_nst.png,0.5,,,,,,,,[],2025-07-15_17h16.30.004,103,,[],0,NORM_no_vis,,,,,ECG_X_EXP1_m1_JT,,,1,,,
﻿-0.425,,,1,161563,,,,,68766fd199ac5101833eeb20,,,,10,,[1.5],76,,,687671e2818b7ec977627768,001,,,,ST,,,59.952038369329664,,0,,,,,,,[],,,,2025-07-15_17h15.45.840,,Please look at the following ECG and decide if ST-elevation is present.,,[1.5],,420.594,67d2f0a3fc7591bc603ac592,,,,424.586,,-0.65,0,,-0.425,[],black,0.65,2024.2.4,Win32,ECG_X_EXP1_m1_JT,,,10,0.801425662,,,,,exp_resources/pilot_round2_stimuli/no_vis/nvis_s0061_v4_3_mi_st.png,0.5,,,,,,,,[],2025-07-15_17h16.30.004,75,,[],0,MI_no_vis,,,,,ECG_X_EXP1_m1_JT,,,1,,,
﻿-0.425,,,1,161563,,,,,68766fd199ac5101833eeb20,,,,11,,[],112,,,687671e2818b7ec977627768,001,,,,N_ST,,,59.952038369329664,,0,,,,,,,[],,,,2025-07-15_17h15.45.840,,Please look at the following ECG and decide if ST-elevation is present.,,[],,424.598,67d2f0a3fc7591bc603ac592,,,,429.924,,-0.65,1,,-0.425,[],black,0.65,2024.2.4,Win32,ECG_X_EXP1_m1_JT,,,11,0.801425662,,,,,exp_resources/pilot_round2_stimuli/no_vis/nvis_s0478_avf_1_normal_nst.png,0.5,,,,,,,,[2.8349999999999795],2025-07-15_17h16.30.004,111,,[2.8349999999999795],0,NORM_no_vis,,,,,ECG_X_EXP1_m1_JT,,,0,,,
﻿-0.425,,,1,161563,,,,,68766fd199ac5101833eeb20,,,,12,,[2.1499999999999773],15,,,687671e2818b7ec977627768,001,,,,ST,,,59.952038369329664,,0,,,,,,,[],,,,2025-07-15_17h15.45.840,,Please look at the following ECG and decide if ST-elevation is present.,,[2.1499999999999773],,429.933,67d2f0a3fc7591bc603ac592,,,,434.57,,0.65,0,,-0.425,[],black,-0.65,2024.2.4,Win32,ECG_X_EXP1_m1_JT,,,12,0.801425662,,,,,exp_resources/pilot_round2_stimuli/MI_vis/JT/JT_0061_v4_6_MI_st.png,0.5,,,,,,,,[],2025-07-15_17h16.30.004,14,,[],0,MI_vis,,,,,ECG_X_EXP1_m1_JT,,,1,,,
﻿-0.425,,,1,161563,,,,,68766fd199ac5101833eeb20,,,,13,,[],77,,,687671e2818b7ec977627768,001,,,,ST,,,59.952038369329664,,0,,,,,,,[],,,,2025-07-15_17h15.45.840,,Please look at the following ECG and decide if ST-elevation is present.,,[],,434.584,67d2f0a3fc7591bc603ac592,,,,439.871,,0.65,1,,-0.425,[],black,-0.65,2024.2.4,Win32,ECG_X_EXP1_m1_JT,,,13,0.801425662,,,,,exp_resources/pilot_round2_stimuli/no_vis/nvis_s0061_v4_6_mi_st.png,0.5,,,,,,,,[2.8010000000000446],2025-07-15_17h16.30.004,76,,[2.8010000000000446],0,MI_no_vis,,,,,ECG_X_EXP1_m1_JT,,,0,,,
﻿-0.425,,,1,161563,,,,,68766fd199ac5101833eeb20,,,,14,,[],119,,,687671e2818b7ec977627768,001,,,,N_ST,,,59.952038369329664,,0,,,,,,,[],,,,2025-07-15_17h15.45.840,,Please look at the following ECG and decide if ST-elevation is present.,,[],,439.883,67d2f0a3fc7591bc603ac592,,,,444.003,,0.65,1,,-0.425,[],black,-0.65,2024.2.4,Win32,ECG_X_EXP1_m1_JT,,,14,0.801425662,,,,,exp_resources/pilot_round2_stimuli/no_vis/nvis_s0491_i_5_normal_nst.png,0.5,,,,,,,,[1.634999999999991],2025-07-15_17h16.30.004,118,,[1.634999999999991],0,NORM_no_vis,,,,,ECG_X_EXP1_m1_JT,,,0,,,
﻿-0.425,,,1,161563,,,,,68766fd199ac5101833eeb20,,,,15,,[9.783999999999992],64,,,687671e2818b7ec977627768,001,,,,ST,,,59.952038369329664,,0,,,,,,,[],,,,2025-07-15_17h15.45.840,,Please look at the following ECG and decide if ST-elevation is present.,,[9.783999999999992],,444.01099999999997,67d2f0a3fc7591bc603ac592,,,,456.287,,-0.65,0,,-0.425,[],black,0.65,2024.2.4,Win32,ECG_X_EXP1_m1_JT,,,15,0.801425662,,,,,exp_resources/pilot_round2_stimuli/no_vis/nvis_s0016_avf_1_mi_st.png,0.5,,,,,,,,[],2025-07-15_17h16.30.004,63,,[],0,MI_no_vis,,,,,ECG_X_EXP1_m1_JT,,,1,,,
﻿-0.425,,,1,161563,,,,,68766fd199ac5101833eeb20,,,,16,,[1.5329999999999586],106,,,687671e2818b7ec977627768,001,,,,N_ST,,,59.952038369329664,,0,,,,,,,[],,,,2025-07-15_17h15.45.840,,Please look at the following ECG and decide if ST-elevation is present.,,[1.5329999999999586],,456.29699999999997,67d2f0a3fc7591bc603ac592,,,,460.32,,-0.65,0,,-0.425,[],black,0.65,2024.2.4,Win32,ECG_X_EXP1_m1_JT,,,16,0.801425662,,,,,exp_resources/pilot_round2_stimuli/no_vis/nvis_s0465_avl_5_normal_nst.png,0.5,,,,,,,,[],2025-07-15_17h16.30.004,105,,[],0,NORM_no_vis,,,,,ECG_X_EXP1_m1_JT,,,1,,,
﻿-0.425,,,1,161563,,,,,68766fd199ac5101833eeb20,,,,17,,[1.6330000000000382],49,,,687671e2818b7ec977627768,001,,,,N_ST,,,59.952038369329664,,0,,,,,,,[],,,,2025-07-15_17h15.45.840,,Please look at the following ECG and decide if ST-elevation is present.,,[1.6330000000000382],,460.325,67d2f0a3fc7591bc603ac592,,,,464.43600000000004,,0.65,0,,-0.425,[],black,-0.65,2024.2.4,Win32,ECG_X_EXP1_m1_JT,,,17,0.801425662,,,,,exp_resources/pilot_round2_stimuli/norm_vis/JT/JT_0466_v4_1_NORM_NOST.png,0.5,,,,,,,,[],2025-07-15_17h16.30.004,48,,[],0,NORM_vis,,,,,ECG_X_EXP1_m1_JT,,,1,,,
﻿-0.425,,,1,161563,,,,,68766fd199ac5101833eeb20,,,,18,,[],97,,,687671e2818b7ec977627768,001,,,,N_ST,,,59.952038369329664,,0,,,,,,,[],,,,2025-07-15_17h15.45.840,,Please look at the following ECG and decide if ST-elevation is present.,,[],,464.44399999999996,67d2f0a3fc7591bc603ac592,,,,468.7050000000001,,0.65,1,,-0.425,[],black,-0.65,2024.2.4,Win32,ECG_X_EXP1_m1_JT,,,18,0.801425662,,,,,exp_resources/pilot_round2_stimuli/no_vis/nvis_s0302_v5_6_normal_nst.png,0.5,,,,,,,,[1.766999999999996],2025-07-15_17h16.30.004,96,,[1.766999999999996],0,NORM_no_vis,,,,,ECG_X_EXP1_m1_JT,,,0,,,
﻿-0.425,,,1,161563,,,,,68766fd199ac5101833eeb20,,,,19,,[],117,,,687671e2818b7ec977627768,001,,,,N_ST,,,59.952038369329664,,0,,,,,,,[],,,,2025-07-15_17h15.45.840,,Please look at the following ECG and decide if ST-elevation is present.,,[],,468.72700000000003,67d2f0a3fc7591bc603ac592,,,,473.22100000000006,,0.65,1,,-0.425,[],black,-0.65,2024.2.4,Win32,ECG_X_EXP1_m1_JT,,,19,0.801425662,,,,,exp_resources/pilot_round2_stimuli/no_vis/nvis_s0481_avr_5_normal_nst.png,0.5,,,,,,,,[2.016999999999939],2025-07-15_17h16.30.004,116,,[2.016999999999939],0,NORM_no_vis,,,,,ECG_X_EXP1_m1_JT,,,0,,,
﻿-0.425,,,1,161563,,,,,68766fd199ac5101833eeb20,,,,20,,[1.2170000000000982],75,,,687671e2818b7ec977627768,001,,,,ST,,,59.952038369329664,,0,,,,,,,[],,,,2025-07-15_17h15.45.840,,Please look at the following ECG and decide if ST-elevation is present.,,[1.2170000000000982],,473.24100000000004,67d2f0a3fc7591bc603ac592,,,,476.93700000000007,,0.65,0,,-0.425,[],black,-0.65,2024.2.4,Win32,ECG_X_EXP1_m1_JT,,,20,0.801425662,,,,,exp_resources/pilot_round2_stimuli/no_vis/nvis_s0056_v4_6_mi_st.png,0.5,,,,,,,,[],2025-07-15_17h16.30.004,74,,[],0,MI_no_vis,,,,,ECG_X_EXP1_m1_JT,,,1,,,
﻿-0.425,,,1,161563,,,,,68766fd199ac5101833eeb20,,,,21,,[],109,,,687671e2818b7ec977627768,001,,,,N_ST,,,59.952038369329664,,0,,,,,,,[],,,,2025-07-15_17h15.45.840,,Please look at the following ECG and decide if ST-elevation is present.,,[],,476.945,67d2f0a3fc7591bc603ac592,,,,480.82200000000006,,0.65,1,,-0.425,[],black,-0.65,2024.2.4,Win32,ECG_X_EXP1_m1_JT,,,21,0.801425662,,,,,exp_resources/pilot_round2_stimuli/no_vis/nvis_s0466_v6_2_normal_nst.png,0.5,,,,,,,,[1.384999999999991],2025-07-15_17h16.30.004,108,,[1.384999999999991],0,NORM_no_vis,,,,,ECG_X_EXP1_m1_JT,,,0,,,
﻿-0.425,,,1,161563,,,,,68766fd199ac5101833eeb20,,,,22,,[1.3010000000000446],79,,,687671e2818b7ec977627768,001,,,,ST,,,59.952038369329664,,0,,,,,,,[],,,,2025-07-15_17h15.45.840,,Please look at the following ECG and decide if ST-elevation is present.,,[1.3010000000000446],,480.83200000000005,67d2f0a3fc7591bc603ac592,,,,484.62000000000006,,0.65,0,,-0.425,[],black,-0.65,2024.2.4,Win32,ECG_X_EXP1_m1_JT,,,22,0.801425662,,,,,exp_resources/pilot_round2_stimuli/no_vis/nvis_s0062_v4_3_mi_st.png,0.5,,,,,,,,[],2025-07-15_17h16.30.004,78,,[],0,MI_no_vis,,,,,ECG_X_EXP1_m1_JT,,,1,,,
﻿-0.425,,,1,161563,,,,,68766fd199ac5101833eeb20,,,,23,,[4.923000000000002],102,,,687671e2818b7ec977627768,001,,,,N_ST,,,59.952038369329664,,0,,,,,,,[],,,,2025-07-15_17h15.45.840,,Please look at the following ECG and decide if ST-elevation is present.,,[4.923000000000002],,484.627,67d2f0a3fc7591bc603ac592,,,,492.04300000000006,,-0.65,0,,-0.425,[],black,0.65,2024.2.4,Win32,ECG_X_EXP1_m1_JT,,,23,0.801425662,,,,,exp_resources/pilot_round2_stimuli/no_vis/nvis_s0460_avr_3_normal_nst.png,0.5,,,,,,,,[],2025-07-15_17h16.30.004,101,,[],0,NORM_no_vis,,,,,ECG_X_EXP1_m1_JT,,,1,,,
﻿-0.425,,,1,161563,,,,,68766fd199ac5101833eeb20,,,,24,,[],20,,,687671e2818b7ec977627768,001,,,,ST,,,59.952038369329664,,0,,,,,,,[],,,,2025-07-15_17h15.45.840,,Please look at the following ECG and decide if ST-elevation is present.,,[],,492.051,67d2f0a3fc7591bc603ac592,,,,508.156,,-0.65,1,,-0.425,[],black,0.65,2024.2.4,Win32,ECG_X_EXP1_m1_JT,,,24,0.801425662,,,,,exp_resources/pilot_round2_stimuli/MI_vis/JT/JT_0092_iii_1_MI_st.png,0.5,,,,,,,,[13.618000000000052],2025-07-15_17h16.30.004,19,,[13.617000000000075],0,MI_vis,,,,,ECG_X_EXP1_m1_JT,,,0,,,
﻿-0.425,,,1,161563,,,,,68766fd199ac5101833eeb20,,,,25,,[],29,,,687671e2818b7ec977627768,001,,,,ST,,,59.952038369329664,,0,,,,,,,[],,,,2025-07-15_17h15.45.840,,Please look at the following ECG and decide if ST-elevation is present.,,[],,508.1770000000001,67d2f0a3fc7591bc603ac592,,,,511.7870000000001,,0.65,1,,-0.425,[],black,-0.65,2024.2.4,Win32,ECG_X_EXP1_m1_JT,,,25,0.801425662,,,,,exp_resources/pilot_round2_stimuli/MI_vis/JT/JT_0557_v1_3_MI_st.png,0.5,,,,,,,,[1.1329999999999245],2025-07-15_17h16.30.004,28,,[1.1329999999999245],0,MI_vis,,,,,ECG_X_EXP1_m1_JT,,,0,,,
﻿-0.425,,,1,161563,,,,,68766fd199ac5101833eeb20,,,,26,,[0.9670000000000982],103,,,687671e2818b7ec977627768,001,,,,N_ST,,,59.952038369329664,,0,,,,,,,[],,,,2025-07-15_17h15.45.840,,Please look at the following ECG and decide if ST-elevation is present.,,[0.9670000000000982],,511.79400000000004,67d2f0a3fc7591bc603ac592,,,,515.254,,0.65,0,,-0.425,[],black,-0.65,2024.2.4,Win32,ECG_X_EXP1_m1_JT,,,26,0.801425662,,,,,exp_resources/pilot_round2_stimuli/no_vis/nvis_s0460_i_5_normal_nst.png,0.5,,,,,,,,[],2025-07-15_17h16.30.004,102,,[],0,NORM_no_vis,,,,,ECG_X_EXP1_m1_JT,,,1,,,
﻿-0.425,,,1,161563,,,,,68766fd199ac5101833eeb20,,,,27,,[],6,,,687671e2818b7ec977627768,001,,,,ST,,,59.952038369329664,,0,,,,,,,[],,,,2025-07-15_17h15.45.840,,Please look at the following ECG and decide if ST-elevation is present.,,[],,515.265,67d2f0a3fc7591bc603ac592,,,,519.137,,-0.65,1,,-0.425,[],black,0.65,2024.2.4,Win32,ECG_X_EXP1_m1_JT,,,27,0.801425662,,,,,exp_resources/pilot_round2_stimuli/MI_vis/JT/JT_0026_v1_3_MI_st.png,0.5,,,,,,,,[1.3829999999999245],2025-07-15_17h16.30.004,5,,[1.3829999999999245],0,MI_vis,,,,,ECG_X_EXP1_m1_JT,,,0,,,
﻿-0.425,,,1,161563,,,,,68766fd199ac5101833eeb20,,,,28,,[1.1330000000000382],108,,,687671e2818b7ec977627768,001,,,,N_ST,,,59.952038369329664,,0,,,,,,,[],,,,2025-07-15_17h15.45.840,,Please look at the following ECG and decide if ST-elevation is present.,,[1.1330000000000382],,519.149,67d2f0a3fc7591bc603ac592,,,,522.77,,-0.65,0,,-0.425,[],black,0.65,2024.2.4,Win32,ECG_X_EXP1_m1_JT,,,28,0.801425662,,,,,exp_resources/pilot_round2_stimuli/no_vis/nvis_s0466_v4_1_normal_nst.png,0.5,,,,,,,,[],2025-07-15_17h16.30.004,107,,[],0,NORM_no_vis,,,,,ECG_X_EXP1_m1_JT,,,1,,,
﻿-0.425,,,1,161563,,,,,68766fd199ac5101833eeb20,,,,29,,[],118,,,687671e2818b7ec977627768,001,,,,N_ST,,,59.952038369329664,,0,,,,,,,[],,,,2025-07-15_17h15.45.840,,Please look at the following ECG and decide if ST-elevation is present.,,[],,522.776,67d2f0a3fc7591bc603ac592,,,,526.3629999999999,,-0.65,1,,-0.425,[],black,0.65,2024.2.4,Win32,ECG_X_EXP1_m1_JT,,,29,0.801425662,,,,,exp_resources/pilot_round2_stimuli/no_vis/nvis_s0487_iii_6_normal_nst.png,0.5,,,,,,,,[1.0860000000000127],2025-07-15_17h16.30.004,117,,[1.0860000000000127],0,NORM_no_vis,,,,,ECG_X_EXP1_m1_JT,,,0,,,
﻿-0.425,,,1,161563,,,,,68766fd199ac5101833eeb20,,,,30,,[],38,,,687671e2818b7ec977627768,001,,,,N_ST,,,59.952038369329664,,0,,,,,,,[],,,,2025-07-15_17h15.45.840,,Please look at the following ECG and decide if ST-elevation is present.,,[],,526.374,67d2f0a3fc7591bc603ac592,,,,530.072,,-0.65,1,,-0.425,[],black,0.65,2024.2.4,Win32,ECG_X_EXP1_m1_JT,,,30,0.801425662,,,,,exp_resources/pilot_round2_stimuli/norm_vis/JT/JT_0302_v5_6_NORM_NOST.png,0.5,,,,,,,,[1.2180000000000746],2025-07-15_17h16.30.004,37,,[1.2180000000000746],0,NORM_vis,,,,,ECG_X_EXP1_m1_JT,,,0,,,
﻿-0.425,,,1,161563,,,,,68766fd199ac5101833eeb20,,,,31,,[],48,,,687671e2818b7ec977627768,001,,,,N_ST,,,59.952038369329664,,0,,,,,,,[],,,,2025-07-15_17h15.45.840,,Please look at the following ECG and decide if ST-elevation is present.,,[],,530.08,67d2f0a3fc7591bc603ac592,,,,533.937,,-0.65,1,,-0.425,[],black,0.65,2024.2.4,Win32,ECG_X_EXP1_m1_JT,,,31,0.801425662,,,,,exp_resources/pilot_round2_stimuli/norm_vis/JT/JT_0465_avr_5_NORM_NOST.png,0.5,,,,,,,,[1.3670000000000755],2025-07-15_17h16.30.004,47,,[1.3670000000000755],0,NORM_vis,,,,,ECG_X_EXP1_m1_JT,,,0,,,
﻿-0.425,,,1,161563,,,,,68766fd199ac5101833eeb20,,,,32,,[1.467999999999961],10,,,687671e2818b7ec977627768,001,,,,ST,,,59.952038369329664,,0,,,,,,,[],,,,2025-07-15_17h15.45.840,,Please look at the following ECG and decide if ST-elevation is present.,,[1.467999999999961],,533.948,67d2f0a3fc7591bc603ac592,,,,537.905,,-0.65,0,,-0.425,[],black,0.65,2024.2.4,Win32,ECG_X_EXP1_m1_JT,,,32,0.801425662,,,,,exp_resources/pilot_round2_stimuli/MI_vis/JT/JT_0038_v4_2_MI_st.png,0.5,,,,,,,,[],2025-07-15_17h16.30.004,9,,[],0,MI_vis,,,,,ECG_X_EXP1_m1_JT,,,1,,,
﻿-0.425,,,1,161563,,,,,68766fd199ac5101833eeb20,,,,33,,[],50,,,687671e2818b7ec977627768,001,,,,N_ST,,,59.952038369329664,,0,,,,,,,[],,,,2025-07-15_17h15.45.840,,Please look at the following ECG and decide if ST-elevation is present.,,[],,537.913,67d2f0a3fc7591bc603ac592,,,,541.5699999999999,,-0.65,1,,-0.425,[],black,0.65,2024.2.4,Win32,ECG_X_EXP1_m1_JT,,,33,0.801425662,,,,,exp_resources/pilot_round2_stimuli/norm_vis/JT/JT_0466_v6_2_NORM_NOST.png,0.5,,,,,,,,[1.16599999999994],2025-07-15_17h16.30.004,49,,[1.16599999999994],0,NORM_vis,,,,,ECG_X_EXP1_m1_JT,,,0,,,
﻿-0.425,,,1,161563,,,,,68766fd199ac5101833eeb20,,,,34,,[],56,,,687671e2818b7ec977627768,001,,,,N_ST,,,59.952038369329664,,0,,,,,,,[],,,,2025-07-15_17h15.45.840,,Please look at the following ECG and decide if ST-elevation is present.,,[],,541.5749999999999,67d2f0a3fc7591bc603ac592,,,,546.037,,-0.65,1,,-0.425,[],black,0.65,2024.2.4,Win32,ECG_X_EXP1_m1_JT,,,34,0.801425662,,,,,exp_resources/pilot_round2_stimuli/norm_vis/JT/JT_0478_v6_1_NORM_NOST.png,0.5,,,,,,,,[1.9829999999999472],2025-07-15_17h16.30.004,55,,[1.9829999999999472],0,NORM_vis,,,,,ECG_X_EXP1_m1_JT,,,0,,,
﻿-0.425,,,1,161563,,,,,68766fd199ac5101833eeb20,,,,35,,[],41,,,687671e2818b7ec977627768,001,,,,N_ST,,,59.952038369329664,,0,,,,,,,[],,,,2025-07-15_17h15.45.840,,Please look at the following ECG and decide if ST-elevation is present.,,[],,546.052,67d2f0a3fc7591bc603ac592,,,,550.454,,0.65,1,,-0.425,[],black,-0.65,2024.2.4,Win32,ECG_X_EXP1_m1_JT,,,35,0.801425662,,,,,exp_resources/pilot_round2_stimuli/norm_vis/JT/JT_0363_v6_2_NORM_NOST.png,0.5,,,,,,,,[1.9189999999999827],2025-07-15_17h16.30.004,40,,[1.9189999999999827],0,NORM_vis,,,,,ECG_X_EXP1_m1_JT,,,0,,,
﻿-0.425,,,1,161563,,,,,68766fd199ac5101833eeb20,,,,36,,[],80,,,687671e2818b7ec977627768,001,,,,ST,,,59.952038369329664,,0,,,,,,,[],,,,2025-07-15_17h15.45.840,,Please look at the following ECG and decide if ST-elevation is present.,,[],,550.467,67d2f0a3fc7591bc603ac592,,,,554.803,,-0.65,1,,-0.425,[],black,0.65,2024.2.4,Win32,ECG_X_EXP1_m1_JT,,,36,0.801425662,,,,,exp_resources/pilot_round2_stimuli/no_vis/nvis_s0064_avr_2_mi_st.png,0.5,,,,,,,,[1.8490000000000464],2025-07-15_17h16.30.004,79,,[1.8490000000000464],0,MI_no_vis,,,,,ECG_X_EXP1_m1_JT,,,0,,,
﻿-0.425,,,1,161563,,,,,68766fd199ac5101833eeb20,,,,37,,[],8,,,687671e2818b7ec977627768,001,,,,ST,,,59.952038369329664,,0,,,,,,,[],,,,2025-07-15_17h15.45.840,,Please look at the following ECG and decide if ST-elevation is present.,,[],,554.809,67d2f0a3fc7591bc603ac592,,,,558.455,,-0.65,1,,-0.425,[],black,0.65,2024.2.4,Win32,ECG_X_EXP1_m1_JT,,,37,0.801425662,,,,,exp_resources/pilot_round2_stimuli/MI_vis/JT/JT_0029_v1_2_MI_st.png,0.5,,,,,,,,[1.15199999999993],2025-07-15_17h16.30.004,7,,[1.15199999999993],0,MI_vis,,,,,ECG_X_EXP1_m1_JT,,,0,,,
﻿-0.425,,,1,161563,,,,,68766fd199ac5101833eeb20,,,,38,,[],19,,,687671e2818b7ec977627768,001,,,,ST,,,59.952038369329664,,0,,,,,,,[],,,,2025-07-15_17h15.45.840,,Please look at the following ECG and decide if ST-elevation is present.,,[],,558.4739999999999,67d2f0a3fc7591bc603ac592,,,,566.021,,0.65,1,,-0.425,[],black,-0.65,2024.2.4,Win32,ECG_X_EXP1_m1_JT,,,38,0.801425662,,,,,exp_resources/pilot_round2_stimuli/MI_vis/JT/JT_0064_v1_2_MI_st.png,0.5,,,,,,,,[5.066000000000031],2025-07-15_17h16.30.004,18,,[5.066000000000031],0,MI_vis,,,,,ECG_X_EXP1_m1_JT,,,0,,,
﻿-0.425,,,1,161563,,,,,68766fd199ac5101833eeb20,,,,39,,[],45,,,687671e2818b7ec977627768,001,,,,N_ST,,,59.952038369329664,,0,,,,,,,[],,,,2025-07-15_17h15.45.840,,Please look at the following ECG and decide if ST-elevation is present.,,[],,566.033,67d2f0a3fc7591bc603ac592,,,,571.705,,0.65,1,,-0.425,[],black,-0.65,2024.2.4,Win32,ECG_X_EXP1_m1_JT,,,39,0.801425662,,,,,exp_resources/pilot_round2_stimuli/norm_vis/JT/JT_0462_v1_4_NORM_NOST.png,0.5,,,,,,,,[3.183999999999969],2025-07-15_17h16.30.004,44,,[3.183999999999969],0,NORM_vis,,,,,ECG_X_EXP1_m1_JT,,,0,,,
﻿-0.425,,,1,161563,,,,,68766fd199ac5101833eeb20,,,,40,,[2.58299999999997],26,,,687671e2818b7ec977627768,001,,,,ST,,,59.952038369329664,,0,,,,,,,[],,,,2025-07-15_17h15.45.840,,Please look at the following ECG and decide if ST-elevation is present.,,[2.58299999999997],,571.713,67d2f0a3fc7591bc603ac592,,,,576.787,,-0.65,0,,-0.425,[],black,0.65,2024.2.4,Win32,ECG_X_EXP1_m1_JT,,,40,0.801425662,,,,,exp_resources/pilot_round2_stimuli/MI_vis/JT/JT_0109_avr_3_MI_st.png,0.5,,,,,,,,[],2025-07-15_17h16.30.004,25,,[],0,MI_vis,,,,,ECG_X_EXP1_m1_JT,,,1,,,
﻿-0.425,,,1,161563,,,,,68766fd199ac5101833eeb20,,,,41,,[],100,,,687671e2818b7ec977627768,001,,,,N_ST,,,59.952038369329664,,0,,,,,,,[],,,,2025-07-15_17h15.45.840,,Please look at the following ECG and decide if ST-elevation is present.,,[],,576.795,67d2f0a3fc7591bc603ac592,,,,583.4689999999999,,-0.65,1,,-0.425,[],black,0.65,2024.2.4,Win32,ECG_X_EXP1_m1_JT,,,41,0.801425662,,,,,exp_resources/pilot_round2_stimuli/no_vis/nvis_s0363_v6_2_normal_nst.png,0.5,,,,,,,,[4.181999999999903],2025-07-15_17h16.30.004,99,,[4.181999999999903],0,NORM_no_vis,,,,,ECG_X_EXP1_m1_JT,,,0,,,
﻿-0.425,,,1,161563,,,,,68766fd199ac5101833eeb20,,,,42,,[],78,,,687671e2818b7ec977627768,001,,,,ST,,,59.952038369329664,,0,,,,,,,[],,,,2025-07-15_17h15.45.840,,Please look at the following ECG and decide if ST-elevation is present.,,[],,583.475,67d2f0a3fc7591bc603ac592,,,,591.621,,-0.65,1,,-0.425,[],black,0.65,2024.2.4,Win32,ECG_X_EXP1_m1_JT,,,42,0.801425662,,,,,exp_resources/pilot_round2_stimuli/no_vis/nvis_s0062_v1_1_mi_st.png,0.5,,,,,,,,[5.651000000000067],2025-07-15_17h16.30.004,77,,[5.651000000000067],0,MI_no_vis,,,,,ECG_X_EXP1_m1_JT,,,0,,,
﻿-0.425,,,1,161563,,,,,68766fd199ac5101833eeb20,,,,43,,[],69,,,687671e2818b7ec977627768,001,,,,ST,,,59.952038369329664,,0,,,,,,,[],,,,2025-07-15_17h15.45.840,,Please look at the following ECG and decide if ST-elevation is present.,,[],,591.6419999999999,67d2f0a3fc7591bc603ac592,,,,599.12,,0.65,1,,-0.425,[],black,-0.65,2024.2.4,Win32,ECG_X_EXP1_m1_JT,,,43,0.801425662,,,,,exp_resources/pilot_round2_stimuli/no_vis/nvis_s0026_v4_5_mi_st.png,0.5,,,,,,,,[5],2025-07-15_17h16.30.004,68,,[5],0,MI_no_vis,,,,,ECG_X_EXP1_m1_JT,,,0,,,
﻿-0.425,,,1,161563,,,,,68766fd199ac5101833eeb20,,,,44,,[],59,,,687671e2818b7ec977627768,001,,,,N_ST,,,59.952038369329664,,0,,,,,,,[],,,,2025-07-15_17h15.45.840,,Please look at the following ECG and decide if ST-elevation is present.,,[],,599.126,67d2f0a3fc7591bc603ac592,,,,604.804,,0.65,1,,-0.425,[],black,-0.65,2024.2.4,Win32,ECG_X_EXP1_m1_JT,,,44,0.801425662,,,,,exp_resources/pilot_round2_stimuli/norm_vis/JT/JT_0487_iii_6_NORM_NOST.png,0.5,,,,,,,,[3.1829999999999927],2025-07-15_17h16.30.004,58,,[3.1829999999999927],0,NORM_vis,,,,,ECG_X_EXP1_m1_JT,,,0,,,
﻿-0.425,,,1,161563,,,,,68766fd199ac5101833eeb20,,,,45,,[5.16700000000003],90,,,687671e2818b7ec977627768,001,,,,N_ST,,,59.952038369329664,,0,,,,,,,[],,,,2025-07-15_17h15.45.840,,Please look at the following ECG and decide if ST-elevation is present.,,[5.16700000000003],,604.817,67d2f0a3fc7591bc603ac592,,,,612.47,,-0.65,0,,-0.425,[],black,0.65,2024.2.4,Win32,ECG_X_EXP1_m1_JT,,,45,0.801425662,,,,,exp_resources/pilot_round2_stimuli/no_vis/nvis_s0273_avl_5_normal_nst.png,0.5,,,,,,,,[],2025-07-15_17h16.30.004,89,,[],0,NORM_no_vis,,,,,ECG_X_EXP1_m1_JT,,,1,,,
﻿-0.425,,,1,161563,,,,,68766fd199ac5101833eeb20,,,,46,,[],34,,,687671e2818b7ec977627768,001,,,,N_ST,,,59.952038369329664,,0,,,,,,,[],,,,2025-07-15_17h15.45.840,,Please look at the following ECG and decide if ST-elevation is present.,,[],,612.478,67d2f0a3fc7591bc603ac592,,,,616.287,,-0.65,1,,-0.425,[],black,0.65,2024.2.4,Win32,ECG_X_EXP1_m1_JT,,,46,0.801425662,,,,,exp_resources/pilot_round2_stimuli/norm_vis/JT/JT_0273_v4_4_NORM_NOST.png,0.5,,,,,,,,[1.3180000000000973],2025-07-15_17h16.30.004,33,,[1.3180000000000973],0,NORM_vis,,,,,ECG_X_EXP1_m1_JT,,,0,,,
﻿-0.425,,,1,161563,,,,,68766fd199ac5101833eeb20,,,,47,,[],24,,,687671e2818b7ec977627768,001,,,,ST,,,59.952038369329664,,0,,,,,,,[],,,,2025-07-15_17h15.45.840,,Please look at the following ECG and decide if ST-elevation is present.,,[],,616.3,67d2f0a3fc7591bc603ac592,,,,620.221,,-0.65,1,,-0.425,[],black,0.65,2024.2.4,Win32,ECG_X_EXP1_m1_JT,,,47,0.801425662,,,,,exp_resources/pilot_round2_stimuli/MI_vis/JT/JT_0105_v1_2_MI_st.png,0.5,,,,,,,,[1.4329999999999927],2025-07-15_17h16.30.004,23,,[1.4329999999999927],0,MI_vis,,,,,ECG_X_EXP1_m1_JT,,,0,,,
﻿-0.425,,,1,161563,,,,,68766fd199ac5101833eeb20,,,,48,,[],36,,,687671e2818b7ec977627768,001,,,,N_ST,,,59.952038369329664,,0,,,,,,,[],,,,2025-07-15_17h15.45.840,,Please look at the following ECG and decide if ST-elevation is present.,,[],,620.229,67d2f0a3fc7591bc603ac592,,,,624.655,,-0.65,1,,-0.425,[],black,0.65,2024.2.4,Win32,ECG_X_EXP1_m1_JT,,,48,0.801425662,,,,,exp_resources/pilot_round2_stimuli/norm_vis/JT/JT_0300_v1_4_NORM_NOST.png,0.5,,,,,,,,[1.9340000000000828],2025-07-15_17h16.30.004,35,,[1.9340000000000828],0,NORM_vis,,,,,ECG_X_EXP1_m1_JT,,,0,,,
﻿-0.425,,,1,161563,,,,,68766fd199ac5101833eeb20,,,,49,,[],66,,,687671e2818b7ec977627768,001,,,,ST,,,59.952038369329664,,0,,,,,,,[],,,,2025-07-15_17h15.45.840,,Please look at the following ECG and decide if ST-elevation is present.,,[],,624.67,67d2f0a3fc7591bc603ac592,,,,629.005,,-0.65,1,,-0.425,[],black,0.65,2024.2.4,Win32,ECG_X_EXP1_m1_JT,,,49,0.801425662,,,,,exp_resources/pilot_round2_stimuli/no_vis/nvis_s0022_v1_3_mi_st.png,0.5,,,,,,,,[1.850999999999999],2025-07-15_17h16.30.004,65,,[1.850999999999999],0,MI_no_vis,,,,,ECG_X_EXP1_m1_JT,,,0,,,
﻿-0.425,,,1,161563,,,,,68766fd199ac5101833eeb20,,,,50,,[3.0189999999998918],89,,,687671e2818b7ec977627768,001,,,,ST,,,59.952038369329664,,0,,,,,,,[],,,,2025-07-15_17h15.45.840,,Please look at the following ECG and decide if ST-elevation is present.,,[3.0189999999998918],,629.015,67d2f0a3fc7591bc603ac592,,,,634.5219999999999,,0.65,0,,-0.425,[],black,-0.65,2024.2.4,Win32,ECG_X_EXP1_m1_JT,,,50,0.801425662,,,,,exp_resources/pilot_round2_stimuli/no_vis/nvis_s0210_v1_4_mi_st.png,0.5,,,,,,,,[],2025-07-15_17h16.30.004,88,,[],0,MI_no_vis,,,,,ECG_X_EXP1_m1_JT,,,1,,,
﻿-0.45,,,1,161563,,,,,68766fd199ac5101833eeb20,,,,51,,[3.685000000000059],128,,,687671e2818b7ec977627768,001,,,,AC,,,59.952038369329664,,0,,,,,,,[],,,,2025-07-15_17h15.45.840,,Please IGNORE the following ECG and click on the centre of the visualisation.,,[3.685000000000059],,634.54,67d2f0a3fc7591bc603ac592,,,,640.705,,-0.65,0,,-0.45,[],red,0.65,2024.2.4,Win32,ECG_X_EXP1_m1_JT,,,51,0.801425662,,,,,exp_resources/pilot_round2_stimuli/no_vis/nvis_s0363_v5_5_normal_nst.png,0.5,,,,,,,,[],2025-07-15_17h16.30.004,127,,[],0,AC,,,,,ECG_X_EXP1_m1_JT,,,1,,,
﻿-0.425,,,1,161563,,,,,68766fd199ac5101833eeb20,,,,52,,[1.9660000000000082],73,,,687671e2818b7ec977627768,001,,,,ST,,,59.952038369329664,,0,,,,,,,[],,,,2025-07-15_17h15.45.840,,Please look at the following ECG and decide if ST-elevation is present.,,[1.9660000000000082],,640.7139999999999,67d2f0a3fc7591bc603ac592,,,,645.1709999999999,,0.65,0,,-0.425,[],black,-0.65,2024.2.4,Win32,ECG_X_EXP1_m1_JT,,,52,0.801425662,,,,,exp_resources/pilot_round2_stimuli/no_vis/nvis_s0042_v4_1_mi_st.png,0.5,,,,,,,,[],2025-07-15_17h16.30.004,72,,[],0,MI_no_vis,,,,,ECG_X_EXP1_m1_JT,,,1,,,
﻿-0.425,,,1,161563,,,,,68766fd199ac5101833eeb20,,,,53,,[5.067000000000007],120,,,687671e2818b7ec977627768,001,,,,ST,,,59.952038369329664,,0,,,,,,,[],,,,2025-07-15_17h15.45.840,,Please look at the following ECG and decide if ST-elevation is present.,,[5.067000000000007],,645.183,67d2f0a3fc7591bc603ac592,,,,652.737,,-0.65,0,,-0.425,[],black,0.65,2024.2.4,Win32,ECG_X_EXP1_m1_JT,,,53,0.801425662,,,,,exp_resources/pilot_round2_stimuli/no_vis/nvis_s0558_v1_2_mi_st.png,0.5,,,,,,,,[],2025-07-15_17h16.30.004,119,,[],0,MI_no_vis,,,,,ECG_X_EXP1_m1_JT,,,1,,,
﻿-0.425,,,1,161563,,,,,68766fd199ac5101833eeb20,,,,54,,[23.201000000000022],13,,,687671e2818b7ec977627768,001,,,,ST,,,59.952038369329664,,0,,,,,,,[],,,,2025-07-15_17h15.45.840,,Please look at the following ECG and decide if ST-elevation is present.,,[23.201000000000022],,652.745,67d2f0a3fc7591bc603ac592,,,,678.439,,0.65,0,,-0.425,[],black,-0.65,2024.2.4,Win32,ECG_X_EXP1_m1_JT,,,54,0.801425662,,,,,exp_resources/pilot_round2_stimuli/MI_vis/JT/JT_0056_v4_6_MI_st.png,0.5,,,,,,,,[],2025-07-15_17h16.30.004,12,,[],0,MI_vis,,,,,ECG_X_EXP1_m1_JT,,,1,,,
﻿-0.425,,,1,161563,,,,,68766fd199ac5101833eeb20,,,,55,,[],42,,,687671e2818b7ec977627768,001,,,,N_ST,,,59.952038369329664,,0,,,,,,,[],,,,2025-07-15_17h15.45.840,,Please look at the following ECG and decide if ST-elevation is present.,,[],,678.462,67d2f0a3fc7591bc603ac592,,,,726.1899999999999,,-0.65,1,,-0.425,[],black,0.65,2024.2.4,Win32,ECG_X_EXP1_m1_JT,,,55,0.801425662,,,,,exp_resources/pilot_round2_stimuli/norm_vis/JT/JT_0374_avf_1_NORM_NOST.png,0.5,,,,,,,,[45.250999999999976],2025-07-15_17h16.30.004,41,,[45.250999999999976],0,NORM_vis,,,,,ECG_X_EXP1_m1_JT,,,0,,,
﻿-0.425,,,1,161563,,,,,68766fd199ac5101833eeb20,,,,56,,[],58,,,687671e2818b7ec977627768,001,,,,N_ST,,,59.952038369329664,,0,,,,,,,[],,,,2025-07-15_17h15.45.840,,Please look at the following ECG and decide if ST-elevation is present.,,[],,726.213,67d2f0a3fc7591bc603ac592,,,,730.787,,-0.65,1,,-0.425,[],black,0.65,2024.2.4,Win32,ECG_X_EXP1_m1_JT,,,56,0.801425662,,,,,exp_resources/pilot_round2_stimuli/norm_vis/JT/JT_0481_avr_5_NORM_NOST.png,0.5,,,,,,,,[2.1000000000000227],2025-07-15_17h16.30.004,57,,[2.1000000000000227],0,NORM_vis,,,,,ECG_X_EXP1_m1_JT,,,0,,,
﻿-0.425,,,1,161563,,,,,68766fd199ac5101833eeb20,,,,57,,[],83,,,687671e2818b7ec977627768,001,,,,ST,,,59.952038369329664,,0,,,,,,,[],,,,2025-07-15_17h15.45.840,,Please look at the following ECG and decide if ST-elevation is present.,,[],,730.795,67d2f0a3fc7591bc603ac592,,,,734.287,,0.65,1,,-0.425,[],black,-0.65,2024.2.4,Win32,ECG_X_EXP1_m1_JT,,,57,0.801425662,,,,,exp_resources/pilot_round2_stimuli/no_vis/nvis_s0092_v1_6_mi_st.png,0.5,,,,,,,,[0.9990000000000236],2025-07-15_17h16.30.004,82,,[0.9990000000000236],0,MI_no_vis,,,,,ECG_X_EXP1_m1_JT,,,0,,,
﻿-0.425,,,1,161563,,,,,68766fd199ac5101833eeb20,,,,58,,[0.8829999999999245],68,,,687671e2818b7ec977627768,001,,,,ST,,,59.952038369329664,,0,,,,,,,[],,,,2025-07-15_17h15.45.840,,Please look at the following ECG and decide if ST-elevation is present.,,[0.8829999999999245],,734.2959999999999,67d2f0a3fc7591bc603ac592,,,,737.67,,-0.65,0,,-0.425,[],black,0.65,2024.2.4,Win32,ECG_X_EXP1_m1_JT,,,58,0.801425662,,,,,exp_resources/pilot_round2_stimuli/no_vis/nvis_s0026_v1_3_mi_st.png,0.5,,,,,,,,[],2025-07-15_17h16.30.004,67,,[],0,MI_no_vis,,,,,ECG_X_EXP1_m1_JT,,,1,,,
﻿-0.425,,,1,161563,,,,,68766fd199ac5101833eeb20,,,,59,,[1.2850000000000819],17,,,687671e2818b7ec977627768,001,,,,ST,,,59.952038369329664,,0,,,,,,,[],,,,2025-07-15_17h15.45.840,,Please look at the following ECG and decide if ST-elevation is present.,,[1.2850000000000819],,737.68,67d2f0a3fc7591bc603ac592,,,,741.455,,0.65,0,,-0.425,[],black,-0.65,2024.2.4,Win32,ECG_X_EXP1_m1_JT,,,59,0.801425662,,,,,exp_resources/pilot_round2_stimuli/MI_vis/JT/JT_0062_v4_3_MI_st.png,0.5,,,,,,,,[],2025-07-15_17h16.30.004,16,,[],0,MI_vis,,,,,ECG_X_EXP1_m1_JT,,,1,,,
﻿-0.425,,,1,161563,,,,,68766fd199ac5101833eeb20,,,,60,,[1.3500000000000227],11,,,687671e2818b7ec977627768,001,,,,ST,,,59.952038369329664,,0,,,,,,,[],,,,2025-07-15_17h15.45.840,,Please look at the following ECG and decide if ST-elevation is present.,,[1.3500000000000227],,741.467,67d2f0a3fc7591bc603ac592,,,,745.304,,0.65,0,,-0.425,[],black,-0.65,2024.2.4,Win32,ECG_X_EXP1_m1_JT,,,60,0.801425662,,,,,exp_resources/pilot_round2_stimuli/MI_vis/JT/JT_0042_v4_1_MI_st.png,0.5,,,,,,,,[],2025-07-15_17h16.30.004,10,,[],0,MI_vis,,,,,ECG_X_EXP1_m1_JT,,,1,,,
﻿-0.425,,,1,161563,,,,,68766fd199ac5101833eeb20,,,,61,,[2.2000000000000455],101,,,687671e2818b7ec977627768,001,,,,N_ST,,,59.952038369329664,,0,,,,,,,[],,,,2025-07-15_17h15.45.840,,Please look at the following ECG and decide if ST-elevation is present.,,[2.2000000000000455],,745.312,67d2f0a3fc7591bc603ac592,,,,750.004,,0.65,0,,-0.425,[],black,-0.65,2024.2.4,Win32,ECG_X_EXP1_m1_JT,,,61,0.801425662,,,,,exp_resources/pilot_round2_stimuli/no_vis/nvis_s0374_avf_1_normal_nst.png,0.5,,,,,,,,[],2025-07-15_17h16.30.004,100,,[],0,NORM_no_vis,,,,,ECG_X_EXP1_m1_JT,,,1,,,
﻿-0.425,,,1,161563,,,,,68766fd199ac5101833eeb20,,,,62,,[0.6009999999999991],27,,,687671e2818b7ec977627768,001,,,,ST,,,59.952038369329664,,0,,,,,,,[],,,,2025-07-15_17h15.45.840,,Please look at the following ECG and decide if ST-elevation is present.,,[0.6009999999999991],,750.011,67d2f0a3fc7591bc603ac592,,,,753.106,,0.65,0,,-0.425,[],black,-0.65,2024.2.4,Win32,ECG_X_EXP1_m1_JT,,,62,0.801425662,,,,,exp_resources/pilot_round2_stimuli/MI_vis/JT/JT_0210_v1_4_MI_st.png,0.5,,,,,,,,[],2025-07-15_17h16.30.004,26,,[],0,MI_vis,,,,,ECG_X_EXP1_m1_JT,,,1,,,
﻿-0.425,,,1,161563,,,,,68766fd199ac5101833eeb20,,,,63,,[1.2339999999999236],25,,,687671e2818b7ec977627768,001,,,,ST,,,59.952038369329664,,0,,,,,,,[],,,,2025-07-15_17h15.45.840,,Please look at the following ECG and decide if ST-elevation is present.,,[1.2339999999999236],,753.133,67d2f0a3fc7591bc603ac592,,,,756.838,,0.65,0,,-0.425,[],black,-0.65,2024.2.4,Win32,ECG_X_EXP1_m1_JT,,,63,0.801425662,,,,,exp_resources/pilot_round2_stimuli/MI_vis/JT/JT_0107_v1_3_MI_st.png,0.5,,,,,,,,[],2025-07-15_17h16.30.004,24,,[],0,MI_vis,,,,,ECG_X_EXP1_m1_JT,,,1,,,
﻿-0.425,,,1,161563,,,,,68766fd199ac5101833eeb20,,,,64,,[1.9009999999999536],110,,,687671e2818b7ec977627768,001,,,,N_ST,,,59.952038369329664,,0,,,,,,,[],,,,2025-07-15_17h15.45.840,,Please look at the following ECG and decide if ST-elevation is present.,,[1.9009999999999536],,756.847,67d2f0a3fc7591bc603ac592,,,,761.2379999999999,,-0.65,0,,-0.425,[],black,0.65,2024.2.4,Win32,ECG_X_EXP1_m1_JT,,,64,0.801425662,,,,,exp_resources/pilot_round2_stimuli/no_vis/nvis_s0467_v5_6_normal_nst.png,0.5,,,,,,,,[],2025-07-15_17h16.30.004,109,,[],0,NORM_no_vis,,,,,ECG_X_EXP1_m1_JT,,,1,,,
﻿-0.425,,,1,161563,,,,,68766fd199ac5101833eeb20,,,,65,,[],116,,,687671e2818b7ec977627768,001,,,,N_ST,,,59.952038369329664,,0,,,,,,,[],,,,2025-07-15_17h15.45.840,,Please look at the following ECG and decide if ST-elevation is present.,,[],,761.2479999999999,67d2f0a3fc7591bc603ac592,,,,770.971,,-0.65,1,,-0.425,[],black,0.65,2024.2.4,Win32,ECG_X_EXP1_m1_JT,,,65,0.801425662,,,,,exp_resources/pilot_round2_stimuli/no_vis/nvis_s0481_avl_4_normal_nst.png,0.5,,,,,,,,[7.232000000000085],2025-07-15_17h16.30.004,115,,[7.232000000000085],0,NORM_no_vis,,,,,ECG_X_EXP1_m1_JT,,,0,,,
﻿-0.425,,,1,161563,,,,,68766fd199ac5101833eeb20,,,,66,,[1.5],9,,,687671e2818b7ec977627768,001,,,,ST,,,59.952038369329664,,0,,,,,,,[],,,,2025-07-15_17h15.45.840,,Please look at the following ECG and decide if ST-elevation is present.,,[1.5],,770.977,67d2f0a3fc7591bc603ac592,,,,774.971,,0.65,0,,-0.425,[],black,-0.65,2024.2.4,Win32,ECG_X_EXP1_m1_JT,,,66,0.801425662,,,,,exp_resources/pilot_round2_stimuli/MI_vis/JT/JT_0038_v1_6_MI_st.png,0.5,,,,,,,,[],2025-07-15_17h16.30.004,8,,[],0,MI_vis,,,,,ECG_X_EXP1_m1_JT,,,1,,,
﻿-0.425,,,1,161563,,,,,68766fd199ac5101833eeb20,,,,67,,[5.482999999999947],95,,,687671e2818b7ec977627768,001,,,,N_ST,,,59.952038369329664,,0,,,,,,,[],,,,2025-07-15_17h15.45.840,,Please look at the following ECG and decide if ST-elevation is present.,,[5.482999999999947],,774.981,67d2f0a3fc7591bc603ac592,,,,782.955,,0.65,0,,-0.425,[],black,-0.65,2024.2.4,Win32,ECG_X_EXP1_m1_JT,,,67,0.801425662,,,,,exp_resources/pilot_round2_stimuli/no_vis/nvis_s0300_v1_4_normal_nst.png,0.5,,,,,,,,[],2025-07-15_17h16.30.004,94,,[],0,NORM_no_vis,,,,,ECG_X_EXP1_m1_JT,,,1,,,
﻿-0.425,,,1,161563,,,,,68766fd199ac5101833eeb20,,,,68,,[2.1340000000000146],32,,,687671e2818b7ec977627768,001,,,,N_ST,,,59.952038369329664,,0,,,,,,,[],,,,2025-07-15_17h15.45.840,,Please look at the following ECG and decide if ST-elevation is present.,,[2.1340000000000146],,782.968,67d2f0a3fc7591bc603ac592,,,,787.5889999999999,,-0.65,0,,-0.425,[],black,0.65,2024.2.4,Win32,ECG_X_EXP1_m1_JT,,,68,0.801425662,,,,,exp_resources/pilot_round2_stimuli/norm_vis/JT/JT_0273_avr_5_NORM_NOST.png,0.5,,,,,,,,[],2025-07-15_17h16.30.004,31,,[],0,NORM_vis,,,,,ECG_X_EXP1_m1_JT,,,1,,,
﻿-0.425,,,1,161563,,,,,68766fd199ac5101833eeb20,,,,69,,[],31,,,687671e2818b7ec977627768,001,,,,N_ST,,,59.952038369329664,,0,,,,,,,[],,,,2025-07-15_17h15.45.840,,Please look at the following ECG and decide if ST-elevation is present.,,[],,787.601,67d2f0a3fc7591bc603ac592,,,,790.89,,0.65,1,,-0.425,[],black,-0.65,2024.2.4,Win32,ECG_X_EXP1_m1_JT,,,69,0.801425662,,,,,exp_resources/pilot_round2_stimuli/norm_vis/JT/JT_0273_avl_5_NORM_NOST.png,0.5,,,,,,,,[0.8020000000000209],2025-07-15_17h16.30.004,30,,[0.8020000000000209],0,NORM_vis,,,,,ECG_X_EXP1_m1_JT,,,0,,,
﻿-0.425,,,1,161563,,,,,68766fd199ac5101833eeb20,,,,70,,[1.2170000000000982],94,,,687671e2818b7ec977627768,001,,,,N_ST,,,59.952038369329664,,0,,,,,,,[],,,,2025-07-15_17h15.45.840,,Please look at the following ECG and decide if ST-elevation is present.,,[1.2170000000000982],,790.907,67d2f0a3fc7591bc603ac592,,,,794.604,,-0.65,0,,-0.425,[],black,0.65,2024.2.4,Win32,ECG_X_EXP1_m1_JT,,,70,0.801425662,,,,,exp_resources/pilot_round2_stimuli/no_vis/nvis_s0299_v1_5_normal_nst.png,0.5,,,,,,,,[],2025-07-15_17h16.30.004,93,,[],0,NORM_no_vis,,,,,ECG_X_EXP1_m1_JT,,,1,,,
﻿-0.425,,,1,161563,,,,,68766fd199ac5101833eeb20,,,,71,,[1.09800000000007],28,,,687671e2818b7ec977627768,001,,,,ST,,,59.952038369329664,,0,,,,,,,[],,,,2025-07-15_17h15.45.840,,Please look at the following ECG and decide if ST-elevation is present.,,[1.09800000000007],,794.611,67d2f0a3fc7591bc603ac592,,,,798.187,,-0.65,0,,-0.425,[],black,0.65,2024.2.4,Win32,ECG_X_EXP1_m1_JT,,,71,0.801425662,,,,,exp_resources/pilot_round2_stimuli/MI_vis/JT/JT_0446_v4_2_MI_st.png,0.5,,,,,,,,[],2025-07-15_17h16.30.004,27,,[],0,MI_vis,,,,,ECG_X_EXP1_m1_JT,,,1,,,
﻿-0.45,,,1,161563,,,,,68766fd199ac5101833eeb20,,,,72,,[1.3660000000000991],125,,,687671e2818b7ec977627768,001,,,,AC,,,59.952038369329664,,0,,,,,,,[],,,,2025-07-15_17h15.45.840,,Please IGNORE the following ECG and click on the centre of the visualisation.,,[1.3660000000000991],,798.196,67d2f0a3fc7591bc603ac592,,,,802.037,,0.65,0,,-0.45,[],red,-0.65,2024.2.4,Win32,ECG_X_EXP1_m1_JT,,,72,0.801425662,,,,,exp_resources/pilot_round2_stimuli/no_vis/nvis_s0089_v1_6_mi_st.png,0.5,,,,,,,,[],2025-07-15_17h16.30.004,124,,[],0,AC,,,,,ECG_X_EXP1_m1_JT,,,1,,,
﻿-0.425,,,1,161563,,,,,68766fd199ac5101833eeb20,,,,73,,[],62,,,687671e2818b7ec977627768,001,,,,ST,,,59.952038369329664,,0,,,,,,,[],,,,2025-07-15_17h15.45.840,,Please look at the following ECG and decide if ST-elevation is present.,,[],,802.0459999999999,67d2f0a3fc7591bc603ac592,,,,806.021,,-0.65,1,,-0.425,[],black,0.65,2024.2.4,Win32,ECG_X_EXP1_m1_JT,,,73,0.801425662,,,,,exp_resources/pilot_round2_stimuli/no_vis/nvis_0557_v1_3_mi_st.png,0.5,,,,,,,,[1.4839999999999236],2025-07-15_17h16.30.004,61,,[1.4839999999999236],0,MI_no_vis,,,,,ECG_X_EXP1_m1_JT,,,0,,,
﻿-0.425,,,1,161563,,,,,68766fd199ac5101833eeb20,,,,74,,[1.1820000000000164],37,,,687671e2818b7ec977627768,001,,,,N_ST,,,59.952038369329664,,0,,,,,,,[],,,,2025-07-15_17h15.45.840,,Please look at the following ECG and decide if ST-elevation is present.,,[1.1820000000000164],,806.028,67d2f0a3fc7591bc603ac592,,,,809.704,,0.65,0,,-0.425,[],black,-0.65,2024.2.4,Win32,ECG_X_EXP1_m1_JT,,,74,0.801425662,,,,,exp_resources/pilot_round2_stimuli/norm_vis/JT/JT_0302_ii_3_NORM_NOST.png,0.5,,,,,,,,[],2025-07-15_17h16.30.004,36,,[],0,NORM_vis,,,,,ECG_X_EXP1_m1_JT,,,1,,,
﻿-0.425,,,1,161563,,,,,68766fd199ac5101833eeb20,,,,75,,[1.4499999999999318],16,,,687671e2818b7ec977627768,001,,,,ST,,,59.952038369329664,,0,,,,,,,[],,,,2025-07-15_17h15.45.840,,Please look at the following ECG and decide if ST-elevation is present.,,[1.4499999999999318],,809.711,67d2f0a3fc7591bc603ac592,,,,813.638,,-0.65,0,,-0.425,[],black,0.65,2024.2.4,Win32,ECG_X_EXP1_m1_JT,,,75,0.801425662,,,,,exp_resources/pilot_round2_stimuli/MI_vis/JT/JT_0062_v1_1_MI_st.png,0.5,,,,,,,,[],2025-07-15_17h16.30.004,15,,[],0,MI_vis,,,,,ECG_X_EXP1_m1_JT,,,1,,,
﻿-0.425,,,1,161563,,,,,68766fd199ac5101833eeb20,,,,76,,[2.0680000000000973],4,,,687671e2818b7ec977627768,001,,,,ST,,,59.952038369329664,,0,,,,,,,[],,,,2025-07-15_17h15.45.840,,Please look at the following ECG and decide if ST-elevation is present.,,[2.0680000000000973],,813.6469999999999,67d2f0a3fc7591bc603ac592,,,,818.207,,-0.65,0,,-0.425,[],black,0.65,2024.2.4,Win32,ECG_X_EXP1_m1_JT,,,76,0.801425662,,,,,exp_resources/pilot_round2_stimuli/MI_vis/JT/JT_0022_v1_3_MI_st.png,0.5,,,,,,,,[],2025-07-15_17h16.30.004,3,,[],0,MI_vis,,,,,ECG_X_EXP1_m1_JT,,,1,,,
﻿-0.425,,,1,161563,,,,,68766fd199ac5101833eeb20,,,,77,,[0.75],33,,,687671e2818b7ec977627768,001,,,,N_ST,,,59.952038369329664,,0,,,,,,,[],,,,2025-07-15_17h15.45.840,,Please look at the following ECG and decide if ST-elevation is present.,,[0.75],,818.232,67d2f0a3fc7591bc603ac592,,,,821.455,,0.65,0,,-0.425,[],black,-0.65,2024.2.4,Win32,ECG_X_EXP1_m1_JT,,,77,0.801425662,,,,,exp_resources/pilot_round2_stimuli/norm_vis/JT/JT_0273_ii_5_NORM_NOST.png,0.5,,,,,,,,[],2025-07-15_17h16.30.004,32,,[],0,NORM_vis,,,,,ECG_X_EXP1_m1_JT,,,1,,,
﻿-0.425,,,1,161563,,,,,68766fd199ac5101833eeb20,,,,78,,[1.0339999999999918],65,,,687671e2818b7ec977627768,001,,,,ST,,,59.952038369329664,,0,,,,,,,[],,,,2025-07-15_17h15.45.840,,Please look at the following ECG and decide if ST-elevation is present.,,[1.0339999999999918],,821.461,67d2f0a3fc7591bc603ac592,,,,824.9879999999999,,0.65,0,,-0.425,[],black,-0.65,2024.2.4,Win32,ECG_X_EXP1_m1_JT,,,78,0.801425662,,,,,exp_resources/pilot_round2_stimuli/no_vis/nvis_s0020_v1_3_mi_st.png,0.5,,,,,,,,[],2025-07-15_17h16.30.004,64,,[],0,MI_no_vis,,,,,ECG_X_EXP1_m1_JT,,,1,,,
﻿-0.425,,,1,161563,,,,,68766fd199ac5101833eeb20,,,,79,,[],5,,,687671e2818b7ec977627768,001,,,,ST,,,59.952038369329664,,0,,,,,,,[],,,,2025-07-15_17h15.45.840,,Please look at the following ECG and decide if ST-elevation is present.,,[],,824.996,67d2f0a3fc7591bc603ac592,,,,828.706,,0.65,1,,-0.425,[],black,-0.65,2024.2.4,Win32,ECG_X_EXP1_m1_JT,,,79,0.801425662,,,,,exp_resources/pilot_round2_stimuli/MI_vis/JT/JT_0025_v4_4_MI_st.png,0.5,,,,,,,,[1.2169999999999845],2025-07-15_17h16.30.004,4,,[1.2169999999999845],0,MI_vis,,,,,ECG_X_EXP1_m1_JT,,,0,,,
﻿-0.425,,,1,161563,,,,,68766fd199ac5101833eeb20,,,,80,,[],91,,,687671e2818b7ec977627768,001,,,,N_ST,,,59.952038369329664,,0,,,,,,,[],,,,2025-07-15_17h15.45.840,,Please look at the following ECG and decide if ST-elevation is present.,,[],,828.718,67d2f0a3fc7591bc603ac592,,,,832.87,,0.65,1,,-0.425,[],black,-0.65,2024.2.4,Win32,ECG_X_EXP1_m1_JT,,,80,0.801425662,,,,,exp_resources/pilot_round2_stimuli/no_vis/nvis_s0273_avr_5_normal_nst.png,0.5,,,,,,,,[1.6660000000000537],2025-07-15_17h16.30.004,90,,[1.6660000000000537],0,NORM_no_vis,,,,,ECG_X_EXP1_m1_JT,,,0,,,
﻿-0.425,,,1,161563,,,,,68766fd199ac5101833eeb20,,,,81,,[],12,,,687671e2818b7ec977627768,001,,,,ST,,,59.952038369329664,,0,,,,,,,[],,,,2025-07-15_17h15.45.840,,Please look at the following ECG and decide if ST-elevation is present.,,[],,832.879,67d2f0a3fc7591bc603ac592,,,,836.7379999999999,,-0.65,1,,-0.425,[],black,0.65,2024.2.4,Win32,ECG_X_EXP1_m1_JT,,,81,0.801425662,,,,,exp_resources/pilot_round2_stimuli/MI_vis/JT/JT_0051_v1_1_MI_st.png,0.5,,,,,,,,[1.3659999999999854],2025-07-15_17h16.30.004,11,,[1.3659999999999854],0,MI_vis,,,,,ECG_X_EXP1_m1_JT,,,0,,,
﻿-0.425,,,1,161563,,,,,68766fd199ac5101833eeb20,,,,82,,[],67,,,687671e2818b7ec977627768,001,,,,ST,,,59.952038369329664,,0,,,,,,,[],,,,2025-07-15_17h15.45.840,,Please look at the following ECG and decide if ST-elevation is present.,,[],,836.7479999999999,67d2f0a3fc7591bc603ac592,,,,840.654,,0.65,1,,-0.425,[],black,-0.65,2024.2.4,Win32,ECG_X_EXP1_m1_JT,,,82,0.801425662,,,,,exp_resources/pilot_round2_stimuli/no_vis/nvis_s0025_v4_4_mi_st.png,0.5,,,,,,,,[1.41700000000003],2025-07-15_17h16.30.004,66,,[1.41700000000003],0,MI_no_vis,,,,,ECG_X_EXP1_m1_JT,,,0,,,
﻿-0.425,,,1,161563,,,,,68766fd199ac5101833eeb20,,,,83,,[],82,,,687671e2818b7ec977627768,001,,,,ST,,,59.952038369329664,,0,,,,,,,[],,,,2025-07-15_17h15.45.840,,Please look at the following ECG and decide if ST-elevation is present.,,[],,840.663,67d2f0a3fc7591bc603ac592,,,,844.288,,-0.65,1,,-0.425,[],black,0.65,2024.2.4,Win32,ECG_X_EXP1_m1_JT,,,83,0.801425662,,,,,exp_resources/pilot_round2_stimuli/no_vis/nvis_s0092_iii_1_mi_st.png,0.5,,,,,,,,[1.1330000000000382],2025-07-15_17h16.30.004,81,,[1.1330000000000382],0,MI_no_vis,,,,,ECG_X_EXP1_m1_JT,,,0,,,
﻿-0.425,,,1,161563,,,,,68766fd199ac5101833eeb20,,,,84,,[1.0339999999999918],40,,,687671e2818b7ec977627768,001,,,,N_ST,,,59.952038369329664,,0,,,,,,,[],,,,2025-07-15_17h15.45.840,,Please look at the following ECG and decide if ST-elevation is present.,,[1.0339999999999918],,844.304,67d2f0a3fc7591bc603ac592,,,,847.823,,-0.65,0,,-0.425,[],black,0.65,2024.2.4,Win32,ECG_X_EXP1_m1_JT,,,84,0.801425662,,,,,exp_resources/pilot_round2_stimuli/norm_vis/JT/JT_0363_v4_2_NORM_NOST.png,0.5,,,,,,,,[],2025-07-15_17h16.30.004,39,,[],0,NORM_vis,,,,,ECG_X_EXP1_m1_JT,,,1,,,
﻿-0.425,,,1,161563,,,,,68766fd199ac5101833eeb20,,,,85,,[0.8829999999999245],92,,,687671e2818b7ec977627768,001,,,,N_ST,,,59.952038369329664,,0,,,,,,,[],,,,2025-07-15_17h15.45.840,,Please look at the following ECG and decide if ST-elevation is present.,,[0.8829999999999245],,847.842,67d2f0a3fc7591bc603ac592,,,,851.204,,-0.65,0,,-0.425,[],black,0.65,2024.2.4,Win32,ECG_X_EXP1_m1_JT,,,85,0.801425662,,,,,exp_resources/pilot_round2_stimuli/no_vis/nvis_s0273_ii_5_normal_nst.png,0.5,,,,,,,,[],2025-07-15_17h16.30.004,91,,[],0,NORM_no_vis,,,,,ECG_X_EXP1_m1_JT,,,1,,,
﻿-0.425,,,1,161563,,,,,68766fd199ac5101833eeb20,,,,86,,[],98,,,687671e2818b7ec977627768,001,,,,N_ST,,,59.952038369329664,,0,,,,,,,[],,,,2025-07-15_17h15.45.840,,Please look at the following ECG and decide if ST-elevation is present.,,[],,851.209,67d2f0a3fc7591bc603ac592,,,,854.822,,-0.65,1,,-0.425,[],black,0.65,2024.2.4,Win32,ECG_X_EXP1_m1_JT,,,86,0.801425662,,,,,exp_resources/pilot_round2_stimuli/no_vis/nvis_s0305_i_4_normal_nst.png,0.5,,,,,,,,[1.1169999999999618],2025-07-15_17h16.30.004,97,,[1.1169999999999618],0,NORM_no_vis,,,,,ECG_X_EXP1_m1_JT,,,0,,,
﻿-0.425,,,1,161563,,,,,68766fd199ac5101833eeb20,,,,87,,[1.83299999999997],88,,,687671e2818b7ec977627768,001,,,,ST,,,59.952038369329664,,0,,,,,,,[],,,,2025-07-15_17h15.45.840,,Please look at the following ECG and decide if ST-elevation is present.,,[1.83299999999997],,854.829,67d2f0a3fc7591bc603ac592,,,,859.155,,-0.65,0,,-0.425,[],black,0.65,2024.2.4,Win32,ECG_X_EXP1_m1_JT,,,87,0.801425662,,,,,exp_resources/pilot_round2_stimuli/no_vis/nvis_s0109_avr_3_mi_st.png,0.5,,,,,,,,[],2025-07-15_17h16.30.004,87,,[],0,MI_no_vis,,,,,ECG_X_EXP1_m1_JT,,,1,,,
﻿-0.45,,,1,161563,,,,,68766fd199ac5101833eeb20,,,,88,,[2.516999999999939],121,,,687671e2818b7ec977627768,001,,,,AC,,,59.952038369329664,,0,,,,,,,[],,,,2025-07-15_17h15.45.840,,Please IGNORE the following ECG and click on the centre of the visualisation.,,[2.516999999999939],,859.167,67d2f0a3fc7591bc603ac592,,,,864.1709999999999,,0.65,0,,-0.45,[],red,-0.65,2024.2.4,Win32,ECG_X_EXP1_m1_JT,,,88,0.801425662,,,,,exp_resources/pilot_round2_stimuli/no_vis/nvis_s0465_v1_4_normal_nst.png,0.5,,,,,,,,[],2025-07-15_17h16.30.004,120,,[],0,AC,,,,,ECG_X_EXP1_m1_JT,,,1,,,
﻿-0.425,,,1,161563,,,,,68766fd199ac5101833eeb20,,,,89,,[1.483000000000061],99,,,687671e2818b7ec977627768,001,,,,N_ST,,,59.952038369329664,,0,,,,,,,[],,,,2025-07-15_17h15.45.840,,Please look at the following ECG and decide if ST-elevation is present.,,[1.483000000000061],,864.177,67d2f0a3fc7591bc603ac592,,,,868.155,,0.65,0,,-0.425,[],black,-0.65,2024.2.4,Win32,ECG_X_EXP1_m1_JT,,,89,0.801425662,,,,,exp_resources/pilot_round2_stimuli/no_vis/nvis_s0363_v4_2_normal_nst.png,0.5,,,,,,,,[],2025-07-15_17h16.30.004,98,,[],0,NORM_no_vis,,,,,ECG_X_EXP1_m1_JT,,,1,,,
﻿-0.425,,,1,161563,,,,,68766fd199ac5101833eeb20,,,,90,,[],57,,,687671e2818b7ec977627768,001,,,,N_ST,,,59.952038369329664,,0,,,,,,,[],,,,2025-07-15_17h15.45.840,,Please look at the following ECG and decide if ST-elevation is present.,,[],,868.163,67d2f0a3fc7591bc603ac592,,,,872.288,,0.65,1,,-0.425,[],black,-0.65,2024.2.4,Win32,ECG_X_EXP1_m1_JT,,,90,0.801425662,,,,,exp_resources/pilot_round2_stimuli/norm_vis/JT/JT_0481_avl_4_NORM_NOST.png,0.5,,,,,,,,[1.6330000000000382],2025-07-15_17h16.30.004,56,,[1.6330000000000382],0,NORM_vis,,,,,ECG_X_EXP1_m1_JT,,,0,,,
﻿-0.425,,,1,161563,,,,,68766fd199ac5101833eeb20,,,,91,,[1.4629999999999654],86,,,687671e2818b7ec977627768,001,,,,ST,,,59.952038369329664,,0,,,,,,,[],,,,2025-07-15_17h15.45.840,,Please look at the following ECG and decide if ST-elevation is present.,,[1.4629999999999654],,872.294,67d2f0a3fc7591bc603ac592,,,,876.2379999999999,,-0.65,0,,-0.425,[],black,0.65,2024.2.4,Win32,ECG_X_EXP1_m1_JT,,,91,0.801425662,,,,,exp_resources/pilot_round2_stimuli/no_vis/nvis_s0105_v1_2_mi_st.png,0.5,,,,,,,,[],2025-07-15_17h16.30.004,85,,[],0,MI_no_vis,,,,,ECG_X_EXP1_m1_JT,,,1,,,
﻿-0.425,,,1,161563,,,,,68766fd199ac5101833eeb20,,,,92,,[1.3870000000000573],47,,,687671e2818b7ec977627768,001,,,,N_ST,,,59.952038369329664,,0,,,,,,,[],,,,2025-07-15_17h15.45.840,,Please look at the following ECG and decide if ST-elevation is present.,,[1.3870000000000573],,876.247,67d2f0a3fc7591bc603ac592,,,,880.126,,0.65,0,,-0.425,[],black,-0.65,2024.2.4,Win32,ECG_X_EXP1_m1_JT,,,92,0.801425662,,,,,exp_resources/pilot_round2_stimuli/norm_vis/JT/JT_0465_avl_5_NORM_NOST.png,0.5,,,,,,,,[],2025-07-15_17h16.30.004,46,,[],0,NORM_vis,,,,,ECG_X_EXP1_m1_JT,,,1,,,
﻿-0.425,,,1,161563,,,,,68766fd199ac5101833eeb20,,,,93,,[],113,,,687671e2818b7ec977627768,001,,,,N_ST,,,59.952038369329664,,0,,,,,,,[],,,,2025-07-15_17h15.45.840,,Please look at the following ECG and decide if ST-elevation is present.,,[],,880.153,67d2f0a3fc7591bc603ac592,,,,883.838,,0.65,1,,-0.425,[],black,-0.65,2024.2.4,Win32,ECG_X_EXP1_m1_JT,,,93,0.801425662,,,,,exp_resources/pilot_round2_stimuli/no_vis/nvis_s0478_i_5_normal_nst.png,0.5,,,,,,,,[1.217999999999961],2025-07-15_17h16.30.004,112,,[1.217999999999961],0,NORM_no_vis,,,,,ECG_X_EXP1_m1_JT,,,0,,,
﻿-0.45,,,1,161563,,,,,68766fd199ac5101833eeb20,,,,94,,[],122,,,687671e2818b7ec977627768,001,,,,AC,,,59.952038369329664,,0,,,,,,,[],,,,2025-07-15_17h15.45.840,,Please IGNORE the following ECG and click on the centre of the visualisation.,,[],,883.848,67d2f0a3fc7591bc603ac592,,,,887.4879999999999,,-0.65,1,,-0.45,[],red,0.65,2024.2.4,Win32,ECG_X_EXP1_m1_JT,,,94,0.801425662,,,,,exp_resources/pilot_round2_stimuli/no_vis/nvis_s0478_v6_1_normal_nst.png,0.5,,,,,,,,[1.1509999999999536],2025-07-15_17h16.30.004,121,,[1.1509999999999536],0,AC,,,,,ECG_X_EXP1_m1_JT,,,0,,,
﻿-0.425,,,1,161563,,,,,68766fd199ac5101833eeb20,,,,95,,[],84,,,687671e2818b7ec977627768,001,,,,ST,,,59.952038369329664,,0,,,,,,,[],,,,2025-07-15_17h15.45.840,,Please look at the following ECG and decide if ST-elevation is present.,,[],,887.501,67d2f0a3fc7591bc603ac592,,,,891.0219999999999,,-0.65,1,,-0.425,[],black,0.65,2024.2.4,Win32,ECG_X_EXP1_m1_JT,,,95,0.801425662,,,,,exp_resources/pilot_round2_stimuli/no_vis/nvis_s0098_v1_5_mi_st.png,0.5,,,,,,,,[1.0339999999999918],2025-07-15_17h16.30.004,83,,[1.0339999999999918],0,MI_no_vis,,,,,ECG_X_EXP1_m1_JT,,,0,,,
﻿-0.425,,,1,161563,,,,,68766fd199ac5101833eeb20,,,,96,,[],61,,,687671e2818b7ec977627768,001,,,,ST,,,59.952038369329664,,0,,,,,,,[],,,,2025-07-15_17h15.45.840,,Please look at the following ECG and decide if ST-elevation is present.,,[],,891.031,67d2f0a3fc7591bc603ac592,,,,894.958,,0.65,1,,-0.425,[],black,-0.65,2024.2.4,Win32,ECG_X_EXP1_m1_JT,,,96,0.801425662,,,,,exp_resources/pilot_round2_stimuli/no_vis/nvis_0446_v4_2_mi_st.png,0.5,,,,,,,,[1.4370000000000118],2025-07-15_17h16.30.004,60,,[1.4370000000000118],0,MI_no_vis,,,,,ECG_X_EXP1_m1_JT,,,0,,,
﻿-0.425,,,1,161563,,,,,68766fd199ac5101833eeb20,,,,97,,[],111,,,687671e2818b7ec977627768,001,,,,N_ST,,,59.952038369329664,,0,,,,,,,[],,,,2025-07-15_17h15.45.840,,Please look at the following ECG and decide if ST-elevation is present.,,[],,894.9639999999999,67d2f0a3fc7591bc603ac592,,,,898.605,,0.65,1,,-0.425,[],black,-0.65,2024.2.4,Win32,ECG_X_EXP1_m1_JT,,,97,0.801425662,,,,,exp_resources/pilot_round2_stimuli/no_vis/nvis_s0472_v1_4_normal_nst.png,0.5,,,,,,,,[1.150000000000091],2025-07-15_17h16.30.004,110,,[1.150000000000091],0,NORM_no_vis,,,,,ECG_X_EXP1_m1_JT,,,0,,,
﻿-0.425,,,1,161563,,,,,68766fd199ac5101833eeb20,,,,98,,[],53,,,687671e2818b7ec977627768,001,,,,N_ST,,,59.952038369329664,,0,,,,,,,[],,,,2025-07-15_17h15.45.840,,Please look at the following ECG and decide if ST-elevation is present.,,[],,898.6129999999999,67d2f0a3fc7591bc603ac592,,,,908.456,,0.65,1,,-0.425,[],black,-0.65,2024.2.4,Win32,ECG_X_EXP1_m1_JT,,,98,0.801425662,,,,,exp_resources/pilot_round2_stimuli/norm_vis/JT/JT_0478_avf_1_NORM_NOST.png,0.5,,,,,,,,[7.350999999999999],2025-07-15_17h16.30.004,52,,[7.350999999999999],0,NORM_vis,,,,,ECG_X_EXP1_m1_JT,,,0,,,
﻿-0.425,,,1,161563,,,,,68766fd199ac5101833eeb20,,,,99,,[1.0510000000000446],115,,,687671e2818b7ec977627768,001,,,,N_ST,,,59.952038369329664,,0,,,,,,,[],,,,2025-07-15_17h15.45.840,,Please look at the following ECG and decide if ST-elevation is present.,,[1.0510000000000446],,908.466,67d2f0a3fc7591bc603ac592,,,,912.007,,0.65,0,,-0.425,[],black,-0.65,2024.2.4,Win32,ECG_X_EXP1_m1_JT,,,99,0.801425662,,,,,exp_resources/pilot_round2_stimuli/no_vis/nvis_s0478_v6_1_normal_nst.png,0.5,,,,,,,,[],2025-07-15_17h16.30.004,114,,[],0,NORM_no_vis,,,,,ECG_X_EXP1_m1_JT,,,1,,,
﻿-0.425,,,1,161563,,,,,68766fd199ac5101833eeb20,,,,100,,[],14,,,687671e2818b7ec977627768,001,,,,ST,,,59.952038369329664,,0,,,,,,,[],,,,2025-07-15_17h15.45.840,,Please look at the following ECG and decide if ST-elevation is present.,,[],,912.0219999999999,67d2f0a3fc7591bc603ac592,,,,932.593,,-0.65,1,,-0.425,[],black,0.65,2024.2.4,Win32,ECG_X_EXP1_m1_JT,,,100,0.801425662,,,,,exp_resources/pilot_round2_stimuli/MI_vis/JT/JT_0061_v4_3_MI_st.png,0.5,,,,,,,,[18.084999999999923],2025-07-15_17h16.30.004,13,,[18.084999999999923],0,MI_vis,,,,,ECG_X_EXP1_m1_JT,,,0,,,
﻿-0.425,,,1,161563,,,,,68766fd199ac5101833eeb20,,,,101,,[],85,,,687671e2818b7ec977627768,001,,,,ST,,,59.952038369329664,,0,,,,,,,[],,,,2025-07-15_17h15.45.840,,Please look at the following ECG and decide if ST-elevation is present.,,[],,932.605,67d2f0a3fc7591bc603ac592,,,,936.705,,0.65,1,,-0.425,[],black,-0.65,2024.2.4,Win32,ECG_X_EXP1_m1_JT,,,101,0.801425662,,,,,exp_resources/pilot_round2_stimuli/no_vis/nvis_s0098_v4_4_mi_st.png,0.5,,,,,,,,[1.6170000000000755],2025-07-15_17h16.30.004,84,,[1.6170000000000755],0,MI_no_vis,,,,,ECG_X_EXP1_m1_JT,,,0,,,
﻿-0.45,,,1,161563,,,,,68766fd199ac5101833eeb20,,,,102,,[1.3339999999999463],127,,,687671e2818b7ec977627768,001,,,,AC,,,59.952038369329664,,0,,,,,,,[],,,,2025-07-15_17h15.45.840,,Please IGNORE the following ECG and click on the centre of the visualisation.,,[1.3349999999999227],,936.7139999999999,67d2f0a3fc7591bc603ac592,,,,940.5409999999999,,0.65,0,,-0.45,[],red,-0.65,2024.2.4,Win32,ECG_X_EXP1_m1_JT,,,102,0.801425662,,,,,exp_resources/pilot_round2_stimuli/no_vis/nvis_s0031_v4_6_mi_st.png,0.5,,,,,,,,[],2025-07-15_17h16.30.004,126,,[],0,AC,,,,,ECG_X_EXP1_m1_JT,,,1,,,
﻿-0.425,,,1,161563,,,,,68766fd199ac5101833eeb20,,,,103,,[],114,,,687671e2818b7ec977627768,001,,,,N_ST,,,59.952038369329664,,0,,,,,,,[],,,,2025-07-15_17h15.45.840,,Please look at the following ECG and decide if ST-elevation is present.,,[],,940.5699999999999,67d2f0a3fc7591bc603ac592,,,,944.388,,-0.65,1,,-0.425,[],black,0.65,2024.2.4,Win32,ECG_X_EXP1_m1_JT,,,103,0.801425662,,,,,exp_resources/pilot_round2_stimuli/no_vis/nvis_s0478_iii_5_normal_nst.png,0.5,,,,,,,,[1.3500000000000227],2025-07-15_17h16.30.004,113,,[1.3500000000000227],0,NORM_no_vis,,,,,ECG_X_EXP1_m1_JT,,,0,,,
﻿-0.425,,,1,161563,,,,,68766fd199ac5101833eeb20,,,,104,,[2.75],81,,,687671e2818b7ec977627768,001,,,,ST,,,59.952038369329664,,0,,,,,,,[],,,,2025-07-15_17h15.45.840,,Please look at the following ECG and decide if ST-elevation is present.,,[2.75],,944.396,67d2f0a3fc7591bc603ac592,,,,949.638,,0.65,0,,-0.425,[],black,-0.65,2024.2.4,Win32,ECG_X_EXP1_m1_JT,,,104,0.801425662,,,,,exp_resources/pilot_round2_stimuli/no_vis/nvis_s0064_v1_2_mi_st.png,0.5,,,,,,,,[],2025-07-15_17h16.30.004,80,,[],0,MI_no_vis,,,,,ECG_X_EXP1_m1_JT,,,1,,,
﻿-0.425,,,1,161563,,,,,68766fd199ac5101833eeb20,,,,105,,[1.33299999999997],39,,,687671e2818b7ec977627768,001,,,,N_ST,,,59.952038369329664,,0,,,,,,,[],,,,2025-07-15_17h15.45.840,,Please look at the following ECG and decide if ST-elevation is present.,,[1.33299999999997],,949.644,67d2f0a3fc7591bc603ac592,,,,953.472,,0.65,0,,-0.425,[],black,-0.65,2024.2.4,Win32,ECG_X_EXP1_m1_JT,,,105,0.801425662,,,,,exp_resources/pilot_round2_stimuli/norm_vis/JT/JT_0305_i_4_NORM_NOST.png,0.5,,,,,,,,[],2025-07-15_17h16.30.004,38,,[],0,NORM_vis,,,,,ECG_X_EXP1_m1_JT,,,1,,,
﻿-0.425,,,1,161563,,,,,68766fd199ac5101833eeb20,,,,106,,[],21,,,687671e2818b7ec977627768,001,,,,ST,,,59.952038369329664,,0,,,,,,,[],,,,2025-07-15_17h15.45.840,,Please look at the following ECG and decide if ST-elevation is present.,,[],,953.48,67d2f0a3fc7591bc603ac592,,,,958.154,,0.65,1,,-0.425,[],black,-0.65,2024.2.4,Win32,ECG_X_EXP1_m1_JT,,,106,0.801425662,,,,,exp_resources/pilot_round2_stimuli/MI_vis/JT/JT_0092_v1_6_MI_st.png,0.5,,,,,,,,[2.1829999999999927],2025-07-15_17h16.30.004,20,,[2.1829999999999927],0,MI_vis,,,,,ECG_X_EXP1_m1_JT,,,0,,,
﻿-0.425,,,1,161563,,,,,68766fd199ac5101833eeb20,,,,107,,[],2,,,687671e2818b7ec977627768,001,,,,ST,,,59.952038369329664,,0,,,,,,,[],,,,2025-07-15_17h15.45.840,,Please look at the following ECG and decide if ST-elevation is present.,,[],,958.162,67d2f0a3fc7591bc603ac592,,,,962.221,,-0.65,1,,-0.425,[],black,0.65,2024.2.4,Win32,ECG_X_EXP1_m1_JT,,,107,0.801425662,,,,,exp_resources/pilot_round2_stimuli/MI_vis/JT/JT_0016_avf_1_MI_st.png,0.5,,,,,,,,[1.5670000000000073],2025-07-15_17h16.30.004,1,,[1.5670000000000073],0,MI_vis,,,,,ECG_X_EXP1_m1_JT,,,0,,,
﻿-0.425,,,1,161563,,,,,68766fd199ac5101833eeb20,,,,108,,[],54,,,687671e2818b7ec977627768,001,,,,N_ST,,,59.952038369329664,,0,,,,,,,[],,,,2025-07-15_17h15.45.840,,Please look at the following ECG and decide if ST-elevation is present.,,[],,962.228,67d2f0a3fc7591bc603ac592,,,,965.871,,-0.65,1,,-0.425,[],black,0.65,2024.2.4,Win32,ECG_X_EXP1_m1_JT,,,108,0.801425662,,,,,exp_resources/pilot_round2_stimuli/norm_vis/JT/JT_0478_i_5_NORM_NOST.png,0.5,,,,,,,,[1.1649999999999636],2025-07-15_17h16.30.004,53,,[1.1649999999999636],0,NORM_vis,,,,,ECG_X_EXP1_m1_JT,,,0,,,
﻿-0.425,,,1,161563,,,,,68766fd199ac5101833eeb20,,,,109,,[1.7000000000000455],1,,,687671e2818b7ec977627768,001,,,,ST,,,59.952038369329664,,0,,,,,,,[],,,,2025-07-15_17h15.45.840,,Please look at the following ECG and decide if ST-elevation is present.,,[1.7000000000000455],,965.877,67d2f0a3fc7591bc603ac592,,,,970.072,,0.65,0,,-0.425,[],black,-0.65,2024.2.4,Win32,ECG_X_EXP1_m1_JT,,,109,0.801425662,,,,,exp_resources/pilot_round2_stimuli/MI_vis/JT/JT_0014_iii_1_MI_st.png,0.5,,,,,,,,[],2025-07-15_17h16.30.004,0,,[],0,MI_vis,,,,,ECG_X_EXP1_m1_JT,,,1,,,
﻿-0.425,,,1,161563,,,,,68766fd199ac5101833eeb20,,,,110,,[1.6520000000000437],93,,,687671e2818b7ec977627768,001,,,,N_ST,,,59.952038369329664,,0,,,,,,,[],,,,2025-07-15_17h15.45.840,,Please look at the following ECG and decide if ST-elevation is present.,,[1.6520000000000437],,970.081,67d2f0a3fc7591bc603ac592,,,,974.2239999999999,,0.65,0,,-0.425,[],black,-0.65,2024.2.4,Win32,ECG_X_EXP1_m1_JT,,,110,0.801425662,,,,,exp_resources/pilot_round2_stimuli/no_vis/nvis_s0273_v4_4_normal_nst.png,0.5,,,,,,,,[],2025-07-15_17h16.30.004,92,,[],0,NORM_no_vis,,,,,ECG_X_EXP1_m1_JT,,,1,,,
﻿-0.425,,,1,161563,,,,,68766fd199ac5101833eeb20,,,,111,,[],107,,,687671e2818b7ec977627768,001,,,,N_ST,,,59.952038369329664,,0,,,,,,,[],,,,2025-07-15_17h15.45.840,,Please look at the following ECG and decide if ST-elevation is present.,,[],,974.241,67d2f0a3fc7591bc603ac592,,,,977.8549999999999,,0.65,1,,-0.425,[],black,-0.65,2024.2.4,Win32,ECG_X_EXP1_m1_JT,,,111,0.801425662,,,,,exp_resources/pilot_round2_stimuli/no_vis/nvis_s0465_avr_5_normal_nst.png,0.5,,,,,,,,[1.1319999999998345],2025-07-15_17h16.30.004,106,,[1.1319999999998345],0,NORM_no_vis,,,,,ECG_X_EXP1_m1_JT,,,0,,,
﻿-0.425,,,1,161563,,,,,68766fd199ac5101833eeb20,,,,112,,[],71,,,687671e2818b7ec977627768,001,,,,ST,,,59.952038369329664,,0,,,,,,,[],,,,2025-07-15_17h15.45.840,,Please look at the following ECG and decide if ST-elevation is present.,,[],,977.862,67d2f0a3fc7591bc603ac592,,,,981.7889999999999,,0.65,1,,-0.425,[],black,-0.65,2024.2.4,Win32,ECG_X_EXP1_m1_JT,,,112,0.801425662,,,,,exp_resources/pilot_round2_stimuli/no_vis/nvis_s0038_v1_6_mi_st.png,0.5,,,,,,,,[1.4349999999999454],2025-07-15_17h16.30.004,70,,[1.4349999999999454],0,MI_no_vis,,,,,ECG_X_EXP1_m1_JT,,,0,,,
﻿-0.425,,,1,161563,,,,,68766fd199ac5101833eeb20,,,,113,,[],55,,,687671e2818b7ec977627768,001,,,,N_ST,,,59.952038369329664,,0,,,,,,,[],,,,2025-07-15_17h15.45.840,,Please look at the following ECG and decide if ST-elevation is present.,,[],,981.802,67d2f0a3fc7591bc603ac592,,,,985.7220000000001,,0.65,1,,-0.425,[],black,-0.65,2024.2.4,Win32,ECG_X_EXP1_m1_JT,,,113,0.801425662,,,,,exp_resources/pilot_round2_stimuli/norm_vis/JT/JT_0478_iii_5_NORM_NOST.png,0.5,,,,,,,,[1.4350000000001728],2025-07-15_17h16.30.004,54,,[1.4350000000001728],0,NORM_vis,,,,,ECG_X_EXP1_m1_JT,,,0,,,
﻿-0.45,,,1,161563,,,,,68766fd199ac5101833eeb20,,,,114,,[],124,,,687671e2818b7ec977627768,001,,,,AC,,,59.952038369329664,,0,,,,,,,[],,,,2025-07-15_17h15.45.840,,Please IGNORE the following ECG and click on the centre of the visualisation.,,[],,985.736,67d2f0a3fc7591bc603ac592,,,,989.572,,-0.65,1,,-0.45,[],red,0.65,2024.2.4,Win32,ECG_X_EXP1_m1_JT,,,114,0.801425662,,,,,exp_resources/pilot_round2_stimuli/no_vis/nvis_s0491_v6_1_normal_nst.png,0.5,,,,,,,,[1.3510000000001128],2025-07-15_17h16.30.004,123,,[1.3510000000001128],0,AC,,,,,ECG_X_EXP1_m1_JT,,,0,,,
﻿-0.425,,,1,161563,,,,,68766fd199ac5101833eeb20,,,,115,,[],105,,,687671e2818b7ec977627768,001,,,,N_ST,,,59.952038369329664,,0,,,,,,,[],,,,2025-07-15_17h15.45.840,,Please look at the following ECG and decide if ST-elevation is present.,,[],,989.58,67d2f0a3fc7591bc603ac592,,,,995.0400000000001,,0.65,1,,-0.425,[],black,-0.65,2024.2.4,Win32,ECG_X_EXP1_m1_JT,,,115,0.801425662,,,,,exp_resources/pilot_round2_stimuli/no_vis/nvis_s0465_avf_4_normal_nst.png,0.5,,,,,,,,[2.969000000000051],2025-07-15_17h16.30.004,104,,[2.969000000000051],0,NORM_no_vis,,,,,ECG_X_EXP1_m1_JT,,,0,,,
﻿-0.45,,,1,161563,,,,,68766fd199ac5101833eeb20,,,,116,,[1.7010000000000218],123,,,687671e2818b7ec977627768,001,,,,AC,,,59.952038369329664,,0,,,,,,,[],,,,2025-07-15_17h15.45.840,,Please IGNORE the following ECG and click on the centre of the visualisation.,,[1.7010000000000218],,995.0459999999999,67d2f0a3fc7591bc603ac592,,,,999.2379999999999,,0.65,0,,-0.45,[],red,-0.65,2024.2.4,Win32,ECG_X_EXP1_m1_JT,,,116,0.801425662,,,,,exp_resources/pilot_round2_stimuli/no_vis/nvis_s0107_v1_3_mi_st.png,0.5,,,,,,,,[],2025-07-15_17h16.30.004,122,,[],0,AC,,,,,ECG_X_EXP1_m1_JT,,,1,,,
﻿-0.425,,,1,161563,,,,,68766fd199ac5101833eeb20,,,,117,,[2.6649999999999636],23,,,687671e2818b7ec977627768,001,,,,ST,,,59.952038369329664,,0,,,,,,,[],,,,2025-07-15_17h15.45.840,,Please look at the following ECG and decide if ST-elevation is present.,,[2.6649999999999636],,999.2479999999999,67d2f0a3fc7591bc603ac592,,,,1004.4050000000001,,0.65,0,,-0.425,[],black,-0.65,2024.2.4,Win32,ECG_X_EXP1_m1_JT,,,117,0.801425662,,,,,exp_resources/pilot_round2_stimuli/MI_vis/JT/JT_0098_v4_4_MI_st.png,0.5,,,,,,,,[],2025-07-15_17h16.30.004,22,,[],0,MI_vis,,,,,ECG_X_EXP1_m1_JT,,,1,,,
﻿-0.425,,,1,161563,,,,,68766fd199ac5101833eeb20,,,,118,,[2.5010000000002037],87,,,687671e2818b7ec977627768,001,,,,ST,,,59.952038369329664,,0,,,,,,,[],,,,2025-07-15_17h15.45.840,,Please look at the following ECG and decide if ST-elevation is present.,,[2.5010000000002037],,1004.4139999999999,67d2f0a3fc7591bc603ac592,,,,1009.4060000000001,,0.65,0,,-0.425,[],black,-0.65,2024.2.4,Win32,ECG_X_EXP1_m1_JT,,,118,0.801425662,,,,,exp_resources/pilot_round2_stimuli/no_vis/nvis_s0107_v1_3_mi_st.png,0.5,,,,,,,,[],2025-07-15_17h16.30.004,86,,[],0,MI_no_vis,,,,,ECG_X_EXP1_m1_JT,,,1,,,
﻿-0.425,,,1,161563,,,,,68766fd199ac5101833eeb20,,,,119,,[],18,,,687671e2818b7ec977627768,001,,,,ST,,,59.952038369329664,,0,,,,,,,[],,,,2025-07-15_17h15.45.840,,Please look at the following ECG and decide if ST-elevation is present.,,[],,1009.4129999999999,67d2f0a3fc7591bc603ac592,,,,1013.224,,-0.65,1,,-0.425,[],black,0.65,2024.2.4,Win32,ECG_X_EXP1_m1_JT,,,119,0.801425662,,,,,exp_resources/pilot_round2_stimuli/MI_vis/JT/JT_0064_avr_2_MI_st.png,0.5,,,,,,,,[1.318000000000211],2025-07-15_17h16.30.004,17,,[1.318000000000211],0,MI_vis,,,,,ECG_X_EXP1_m1_JT,,,0,,,
﻿-0.425,,,1,161563,,,,,68766fd199ac5101833eeb20,,,,120,,[],35,,,687671e2818b7ec977627768,001,,,,N_ST,,,59.952038369329664,,0,,,,,,,[],,,,2025-07-15_17h15.45.840,,Please look at the following ECG and decide if ST-elevation is present.,,[],,1013.235,67d2f0a3fc7591bc603ac592,,,,1017.755,,0.65,1,,-0.425,[],black,-0.65,2024.2.4,Win32,ECG_X_EXP1_m1_JT,,,120,0.801425662,,,,,exp_resources/pilot_round2_stimuli/norm_vis/JT/JT_0299_v1_5_NORM_NOST.png,0.5,,,,,,,,[2.0329999999999018],2025-07-15_17h16.30.004,34,,[2.0329999999999018],0,NORM_vis,,,,,ECG_X_EXP1_m1_JT,,,0,,,
﻿-0.425,,,1,161563,,,,,68766fd199ac5101833eeb20,,,,121,,[],3,,,687671e2818b7ec977627768,001,,,,ST,,,59.952038369329664,,0,,,,,,,[],,,,2025-07-15_17h15.45.840,,Please look at the following ECG and decide if ST-elevation is present.,,[],,1017.764,67d2f0a3fc7591bc603ac592,,,,1022.372,,0.65,1,,-0.425,[],black,-0.65,2024.2.4,Win32,ECG_X_EXP1_m1_JT,,,121,0.801425662,,,,,exp_resources/pilot_round2_stimuli/MI_vis/JT/JT_0020_v1_3_MI_st.png,0.5,,,,,,,,[2.116999999999962],2025-07-15_17h16.30.004,2,,[2.116999999999962],0,MI_vis,,,,,ECG_X_EXP1_m1_JT,,,0,,,
﻿-0.425,,,1,161563,,,,,68766fd199ac5101833eeb20,,,,122,,[],43,,,687671e2818b7ec977627768,001,,,,N_ST,,,59.952038369329664,,0,,,,,,,[],,,,2025-07-15_17h15.45.840,,Please look at the following ECG and decide if ST-elevation is present.,,[],,1022.379,67d2f0a3fc7591bc603ac592,,,,1026.505,,0.65,1,,-0.425,[],black,-0.65,2024.2.4,Win32,ECG_X_EXP1_m1_JT,,,122,0.801425662,,,,,exp_resources/pilot_round2_stimuli/norm_vis/JT/JT_0460_avr_3_NORM_NOST.png,0.5,,,,,,,,[1.6330000000000382],2025-07-15_17h16.30.004,42,,[1.6330000000000382],0,NORM_vis,,,,,ECG_X_EXP1_m1_JT,,,0,,,
﻿-0.425,,,1,161563,,,,,68766fd199ac5101833eeb20,,,,123,,[],51,,,687671e2818b7ec977627768,001,,,,N_ST,,,59.952038369329664,,0,,,,,,,[],,,,2025-07-15_17h15.45.840,,Please look at the following ECG and decide if ST-elevation is present.,,[],,1026.5140000000001,67d2f0a3fc7591bc603ac592,,,,1030.305,,0.65,1,,-0.425,[],black,-0.65,2024.2.4,Win32,ECG_X_EXP1_m1_JT,,,123,0.801425662,,,,,exp_resources/pilot_round2_stimuli/norm_vis/JT/JT_0467_v5_6_NORM_NOST.png,0.5,,,,,,,,[1.2999999999999545],2025-07-15_17h16.30.004,50,,[1.2999999999999545],0,NORM_vis,,,,,ECG_X_EXP1_m1_JT,,,0,,,
﻿-0.425,,,1,161563,,,,,68766fd199ac5101833eeb20,,,,124,,[0.6349999999999909],44,,,687671e2818b7ec977627768,001,,,,N_ST,,,59.952038369329664,,0,,,,,,,[],,,,2025-07-15_17h15.45.840,,Please look at the following ECG and decide if ST-elevation is present.,,[0.6349999999999909],,1030.315,67d2f0a3fc7591bc603ac592,,,,1033.44,,-0.65,0,,-0.425,[],black,0.65,2024.2.4,Win32,ECG_X_EXP1_m1_JT,,,124,0.801425662,,,,,exp_resources/pilot_round2_stimuli/norm_vis/JT/JT_0460_i_5_NORM_NOST.png,0.5,,,,,,,,[],2025-07-15_17h16.30.004,43,,[],0,NORM_vis,,,,,ECG_X_EXP1_m1_JT,,,1,,,
﻿-0.425,,,1,161563,,,,,68766fd199ac5101833eeb20,,,,125,,[],52,,,687671e2818b7ec977627768,001,,,,N_ST,,,59.952038369329664,,0,,,,,,,[],,,,2025-07-15_17h15.45.840,,Please look at the following ECG and decide if ST-elevation is present.,,[],,1033.452,67d2f0a3fc7591bc603ac592,,,,1038.489,,-0.65,1,,-0.425,[],black,0.65,2024.2.4,Win32,ECG_X_EXP1_m1_JT,,,125,0.801425662,,,,,exp_resources/pilot_round2_stimuli/norm_vis/JT/JT_0472_v1_4_NORM_NOST.png,0.5,,,,,,,,[2.550999999999931],2025-07-15_17h16.30.004,51,,[2.5499999999999545],0,NORM_vis,,,,,ECG_X_EXP1_m1_JT,,,0,,,
﻿-0.425,,,1,161563,,,,,68766fd199ac5101833eeb20,,,,126,,[3.5009999999999764],70,,,687671e2818b7ec977627768,001,,,,ST,,,59.952038369329664,,0,,,,,,,[],,,,2025-07-15_17h15.45.840,,Please look at the following ECG and decide if ST-elevation is present.,,[3.5009999999999764],,1038.497,67d2f0a3fc7591bc603ac592,,,,1044.489,,-0.65,0,,-0.425,[],black,0.65,2024.2.4,Win32,ECG_X_EXP1_m1_JT,,,126,0.801425662,,,,,exp_resources/pilot_round2_stimuli/no_vis/nvis_s0029_v1_2_mi_st.png,0.5,,,,,,,,[],2025-07-15_17h16.30.004,69,,[],0,MI_no_vis,,,,,ECG_X_EXP1_m1_JT,,,1,,,
﻿-0.425,,,1,161563,,,,,68766fd199ac5101833eeb20,,,,127,,[2.2509999999999764],63,,,687671e2818b7ec977627768,001,,,,ST,,,59.952038369329664,,0,,,,,,,[],,,,2025-07-15_17h15.45.840,,Please look at the following ECG and decide if ST-elevation is present.,,[2.2509999999999764],,1044.4940000000001,67d2f0a3fc7591bc603ac592,,,,1049.239,,0.65,0,,-0.425,[],black,-0.65,2024.2.4,Win32,ECG_X_EXP1_m1_JT,,,127,0.801425662,,,,,exp_resources/pilot_round2_stimuli/no_vis/nvis_s0014_iii_1_mi_st.png,0.5,,,,,,,,[],2025-07-15_17h16.30.004,62,,[],0,MI_no_vis,,,,,ECG_X_EXP1_m1_JT,,,1,,,
﻿,,1049.24,,161563,,,,,68766fd199ac5101833eeb20,,,,,,,,,,687671e2818b7ec977627768,001,,,,,,,59.952038369329664,,,,,,,,,,,,,2025-07-15_17h15.45.840,,,,,,,67d2f0a3fc7591bc603ac592,,,,,,,,,,,,,2024.2.4,Win32,ECG_X_EXP1_m1_JT,,,,,,,,,,,,,,,,,,,2025-07-15_17h16.30.004,,,,,,,,,,ECG_X_EXP1_m1_JT,,,,,,1053.326
